Timestamp, Acceleration x, Acceleration y, Acceleration z, Marker
30,-0.536133,-0.422852,0.667969,0
50,-0.53418,-0.416504,0.647949,0
70,-0.557129,-0.42334,0.654785,0
90,-0.583496,-0.444336,0.679199,0
110,-0.58252,-0.443359,0.703125,0
130,-0.568359,-0.429199,0.672363,0
150,-0.572754,-0.425293,0.634277,0
170,-0.590332,-0.435547,0.613281,0
190,-0.581543,-0.453125,0.631836,0
210,-0.559082,-0.456543,0.660156,0
210,-0.552734,-0.443848,0.647949,0
250,-0.553223,-0.44043,0.616211,0
270,-0.567871,-0.438477,0.630859,0
290,-0.578125,-0.431152,0.632324,0
300,-0.62207,-0.436035,0.648438,0
320,-0.620605,-0.429688,0.638672,0
340,-0.612305,-0.436523,0.654297,0
360,-0.607422,-0.450195,0.647461,0
370,-0.621582,-0.43457,0.636719,0
390,-0.618652,-0.421875,0.63916,0
410,-0.591309,-0.40625,0.635254,0
430,-0.572754,-0.424316,0.633301,0
450,-0.581055,-0.433594,0.640625,0
470,-0.592285,-0.433594,0.63916,0
490,-0.591309,-0.418457,0.646973,0
510,-0.604492,-0.42334,0.64209,0
530,-0.617676,-0.42627,0.629395,0
550,-0.625488,-0.425781,0.623535,0
570,-0.617188,-0.419922,0.612793,0
590,-0.595215,-0.421387,0.612793,0
610,-0.596191,-0.421875,0.619141,0
630,-0.592285,-0.44043,0.621094,0
650,-0.583008,-0.444336,0.632324,0
670,-0.589844,-0.445801,0.646973,0
690,-0.592285,-0.444824,0.636719,0
710,-0.599121,-0.451172,0.639648,0
730,-0.603027,-0.447754,0.634766,0
750,-0.606934,-0.436523,0.628906,0
770,-0.598633,-0.431152,0.620117,0
780,-0.59375,-0.432129,0.617188,0
800,-0.59082,-0.431641,0.62793,0
820,-0.597168,-0.431641,0.635254,0
840,-0.596191,-0.442871,0.622559,0
860,-0.591797,-0.4375,0.626953,0
880,-0.599609,-0.453125,0.625977,0
900,-0.597168,-0.453613,0.632324,0
920,-0.597656,-0.460449,0.621094,0
940,-0.595215,-0.45459,0.616211,0
960,-0.600586,-0.450195,0.626953,0
980,-0.601562,-0.425781,0.612305,0
1000,-0.602539,-0.421875,0.624512,0
1020,-0.594238,-0.433105,0.625977,0
1040,-0.591309,-0.442383,0.632324,0
1060,-0.595703,-0.449219,0.630859,0
1080,-0.595703,-0.453125,0.625488,0
1100,-0.594727,-0.458008,0.630371,0
1120,-0.595703,-0.463867,0.627441,0
1140,-0.609375,-0.472656,0.616699,0
1160,-0.593262,-0.490723,0.59375,0
1180,-0.546387,-0.47168,0.619629,0
1200,-0.558105,-0.463867,0.620605,0
1220,-0.614258,-0.422852,0.619141,0
1240,-0.64209,-0.385254,0.631836,0
1260,-0.652344,-0.377441,0.672363,0
1280,-0.657227,-0.39502,0.665039,0
1300,-0.585938,-0.399414,0.659668,0
1320,-0.568848,-0.415039,0.653809,0
1340,-0.582031,-0.407715,0.627441,0
1360,-0.583984,-0.394043,0.599609,0
1380,-0.559082,-0.417969,0.580566,0
1400,-0.57666,-0.434082,0.589355,0
1420,-0.627441,-0.457031,0.600586,0
1440,-0.648438,-0.465332,0.619141,0
1460,-0.63623,-0.462402,0.621094,0
1480,-0.624512,-0.477539,0.626465,0
1500,-0.609863,-0.479492,0.625977,0
1520,-0.570801,-0.444336,0.616211,0
1540,-0.549805,-0.408203,0.638184,0
1560,-0.556152,-0.374023,0.65918,0
1580,-0.591309,-0.38916,0.68457,0
1600,-0.611328,-0.409668,0.679688,0
1620,-0.627441,-0.410645,0.687012,0
1640,-0.614746,-0.386719,0.657715,0
1660,-0.59082,-0.415527,0.63623,0
1680,-0.572266,-0.446289,0.620605,0
1700,-0.578125,-0.445312,0.61377,0
1720,-0.589844,-0.4375,0.619629,0
1740,-0.602051,-0.448242,0.621582,0
1760,-0.602539,-0.453125,0.624512,0
1780,-0.602539,-0.446289,0.630859,0
1800,-0.594727,-0.452637,0.635742,0
1820,-0.583496,-0.438965,0.639648,0
1830,-0.578613,-0.433594,0.643066,0
1850,-0.568359,-0.428223,0.643555,0
1870,-0.583008,-0.435547,0.642578,0
1890,-0.587891,-0.434082,0.638184,0
1910,-0.604004,-0.446289,0.621094,0
1930,-0.598633,-0.473145,0.615234,0
1950,-0.601074,-0.458008,0.627441,0
1980,-0.610352,-0.471191,0.609863,0
2000,-0.602539,-0.470703,0.616699,0
2020,-0.59668,-0.463867,0.60791,0
2040,-0.584473,-0.442383,0.60791,0
2060,-0.591797,-0.438477,0.609375,0
2080,-0.599121,-0.431641,0.609863,0
2100,-0.60498,-0.439453,0.625,0
2120,-0.614258,-0.435547,0.634277,0
2140,-0.619141,-0.44873,0.615234,0
2160,-0.595703,-0.456543,0.597656,0
2180,-0.578613,-0.461426,0.597656,0
2200,-0.581543,-0.45752,0.599121,0
2220,-0.592773,-0.461426,0.608398,0
2240,-0.609375,-0.465332,0.621582,0
2260,-0.626465,-0.463867,0.611816,0
2280,-0.625977,-0.452637,0.607422,0
2300,-0.611816,-0.440918,0.599609,0
2320,-0.602051,-0.448242,0.598145,0
2340,-0.599121,-0.45459,0.601074,0
2360,-0.596191,-0.458496,0.612793,0
2380,-0.60791,-0.45459,0.616699,0
2400,-0.61084,-0.461914,0.617676,0
2420,-0.609863,-0.464355,0.615723,0
2440,-0.60498,-0.466309,0.612793,0
2460,-0.605469,-0.465332,0.61377,0
2480,-0.587402,-0.458984,0.611816,0
2500,-0.577637,-0.456055,0.614258,0
2520,-0.579102,-0.453125,0.618164,0
2540,-0.585938,-0.450195,0.608887,0
2560,-0.597656,-0.451172,0.612793,0
2580,-0.617188,-0.447266,0.617188,0
2600,-0.625,-0.443848,0.617676,0
2620,-0.621094,-0.440918,0.603027,0
2640,-0.604004,-0.438477,0.601074,0
2660,-0.599609,-0.449219,0.603516,0
2680,-0.598145,-0.444824,0.608887,0
2700,-0.592773,-0.45459,0.615723,0
2720,-0.597656,-0.450684,0.618652,0
2730,-0.597168,-0.462891,0.614746,0
2750,-0.594238,-0.460449,0.619141,0
2770,-0.602539,-0.465332,0.62207,0
2790,-0.600098,-0.45459,0.611816,0
2810,-0.601074,-0.446777,0.614258,0
2830,-0.601074,-0.444336,0.615234,0
2850,-0.60498,-0.443848,0.620117,0
2870,-0.603027,-0.444336,0.620605,0
2890,-0.597656,-0.446777,0.616211,0
2910,-0.593262,-0.448242,0.626465,0
2930,-0.60498,-0.437988,0.634766,0
2950,-0.601562,-0.441895,0.619141,0
2970,-0.591309,-0.44043,0.617676,0
2990,-0.595215,-0.445312,0.614258,0
3010,-0.608398,-0.448242,0.615723,0
3030,-0.602539,-0.45752,0.62207,0
3050,-0.60498,-0.453125,0.62207,0
3070,-0.604004,-0.446777,0.62207,0
3090,-0.603027,-0.441406,0.625,0
3110,-0.602539,-0.442871,0.62207,0
3130,-0.598633,-0.440918,0.618164,0
3150,-0.59668,-0.443359,0.618164,0
3170,-0.59668,-0.445312,0.619629,0
3190,-0.603027,-0.452148,0.626465,0
3210,-0.603027,-0.448242,0.626465,0
3230,-0.598145,-0.44873,0.620605,0
3250,-0.597656,-0.445312,0.623047,0
3270,-0.594238,-0.448242,0.626953,0
3290,-0.601074,-0.444336,0.620117,0
3310,-0.600586,-0.440918,0.619629,0
3330,-0.598633,-0.437988,0.618652,0
3350,-0.601562,-0.447266,0.620117,0
3370,-0.600586,-0.454102,0.620605,0
3390,-0.599609,-0.456543,0.622559,0
3410,-0.598633,-0.451172,0.622559,0
3430,-0.601074,-0.44873,0.619141,0
3450,-0.603027,-0.445801,0.616699,0
3470,-0.602051,-0.442871,0.621094,0
3490,-0.604492,-0.445312,0.612793,0
3510,-0.604004,-0.443848,0.617188,0
3530,-0.601562,-0.443848,0.621094,0
3550,-0.600586,-0.444336,0.626465,0
3570,-0.601562,-0.45459,0.620117,0
3590,-0.59375,-0.452637,0.620117,0
3610,-0.599121,-0.459473,0.614258,0
3630,-0.596191,-0.449219,0.614258,0
3650,-0.601562,-0.451172,0.618164,0
3670,-0.598633,-0.453125,0.616699,0
3690,-0.60498,-0.445312,0.605957,0
3710,-0.605469,-0.445801,0.620605,0
3730,-0.605469,-0.443359,0.626953,0
3750,-0.607422,-0.444824,0.625488,0
3770,-0.608887,-0.441895,0.625,0
3790,-0.606445,-0.445312,0.618652,0
3810,-0.590332,-0.45166,0.597168,0
3830,-0.582031,-0.452637,0.602051,0
3850,-0.584473,-0.449707,0.616699,0
3870,-0.595703,-0.461426,0.632324,0
3900,-0.606934,-0.444824,0.64502,0
3920,-0.606445,-0.438477,0.631348,0
3940,-0.605469,-0.451172,0.599609,0
3960,-0.585449,-0.453125,0.606445,0
3980,-0.593262,-0.45752,0.610352,0
4000,-0.608398,-0.44873,0.597656,0
4020,-0.616211,-0.446777,0.612305,0
4040,-0.614258,-0.441895,0.621582,0
4060,-0.625977,-0.450195,0.63623,0
4080,-0.610352,-0.437012,0.652344,0
4100,-0.608887,-0.430664,0.655273,0
4120,-0.608398,-0.432129,0.637207,0
4140,-0.604492,-0.436035,0.609375,0
4160,-0.60498,-0.432617,0.591797,0
4180,-0.615723,-0.443848,0.57666,0
4200,-0.611328,-0.454102,0.570312,0
4220,-0.609863,-0.466309,0.564941,0
4240,-0.606445,-0.46582,0.593262,0
4260,-0.609863,-0.444336,0.611328,0
4280,-0.626953,-0.460449,0.609375,0
4300,-0.632812,-0.462402,0.626465,0
4320,-0.630371,-0.46875,0.616211,0
4340,-0.617188,-0.44873,0.605469,0
4360,-0.588867,-0.443848,0.615234,0
4380,-0.603027,-0.422363,0.624023,0
4400,-0.586914,-0.416504,0.641113,0
4420,-0.56543,-0.42041,0.648438,0
4440,-0.550781,-0.438965,0.646973,0
4460,-0.542969,-0.44043,0.647461,0
4480,-0.512207,-0.443359,0.660645,0
4500,-0.502441,-0.43457,0.683594,0
4520,-0.506836,-0.435547,0.707031,0
4540,-0.527832,-0.432617,0.712891,0
4560,-0.555176,-0.414551,0.699219,0
4580,-0.57959,-0.390137,0.688965,0
4600,-0.594727,-0.378906,0.666016,0
4620,-0.594727,-0.384766,0.653809,0
4640,-0.598633,-0.402832,0.647949,0
4660,-0.602051,-0.405273,0.646484,0
4680,-0.596191,-0.413574,0.642578,0
4700,-0.59082,-0.409668,0.651855,0
4720,-0.591797,-0.394043,0.654297,0
4740,-0.59082,-0.394531,0.649414,0
4760,-0.585449,-0.38623,0.646973,0
4780,-0.586426,-0.402344,0.654297,0
4800,-0.583008,-0.404297,0.657715,0
4820,-0.589355,-0.412598,0.650391,0
4840,-0.585938,-0.422852,0.651855,0
4860,-0.575684,-0.436523,0.646484,0
4880,-0.557617,-0.438965,0.63623,0
4900,-0.555664,-0.448242,0.634277,0
4920,-0.569336,-0.456543,0.633789,0
4940,-0.576172,-0.447266,0.649902,0
4960,-0.583496,-0.437988,0.654297,0
4980,-0.583008,-0.418457,0.658691,0
5000,-0.588379,-0.416504,0.656738,0
5020,-0.586426,-0.411133,0.660156,0
5040,-0.580566,-0.403809,0.655273,0
5060,-0.585938,-0.404297,0.65332,0
5080,-0.59082,-0.402344,0.656738,0
5100,-0.588379,-0.399414,0.648926,0
5120,-0.595215,-0.400391,0.662598,0
5140,-0.591797,-0.392578,0.655273,0
5160,-0.59375,-0.402344,0.662109,0
5180,-0.586914,-0.400391,0.658203,0
5200,-0.583984,-0.413574,0.64502,0
5220,-0.578125,-0.412109,0.647949,0
5240,-0.581543,-0.419922,0.657227,0
5260,-0.584473,-0.416992,0.651855,0
5280,-0.583984,-0.427246,0.649414,0
5300,-0.58252,-0.413574,0.651367,0
5320,-0.590332,-0.416016,0.652832,0
5340,-0.589844,-0.424316,0.659668,0
5360,-0.586426,-0.429199,0.647949,0
5380,-0.586426,-0.426758,0.650879,0
5400,-0.585938,-0.421387,0.646484,0
5420,-0.588867,-0.42041,0.649902,0
5440,-0.586426,-0.415527,0.648926,0
5460,-0.586914,-0.415527,0.648926,0
5480,-0.583984,-0.413086,0.646973,0
5500,-0.588379,-0.416992,0.652832,0
5520,-0.583496,-0.412598,0.650879,0
5540,-0.585449,-0.42334,0.644531,0
5560,-0.583496,-0.428711,0.643066,0
5580,-0.584473,-0.434082,0.645996,0
5600,-0.585938,-0.420898,0.647461,0
5620,-0.588867,-0.426758,0.646484,0
5640,-0.583496,-0.424805,0.646973,0
5660,-0.581543,-0.42627,0.643066,0
5680,-0.580566,-0.418457,0.648438,0
5700,-0.586914,-0.405273,0.645996,0
5720,-0.584473,-0.412598,0.647949,0
5740,-0.591309,-0.422363,0.646484,0
5760,-0.586426,-0.421387,0.645508,0
5790,-0.585938,-0.419434,0.650391,0
5810,-0.589355,-0.419922,0.644043,0
5830,-0.583496,-0.422363,0.65625,0
5850,-0.582031,-0.416504,0.645996,0
5870,-0.586426,-0.416504,0.648438,0
5890,-0.587891,-0.409668,0.651855,0
5900,-0.587891,-0.416992,0.65332,0
5920,-0.585938,-0.411621,0.648438,0
5940,-0.587402,-0.414062,0.648438,0
5960,-0.584473,-0.412109,0.649414,0
5980,-0.580566,-0.410156,0.655762,0
6000,-0.58252,-0.408203,0.651855,0
6020,-0.583984,-0.407227,0.650879,0
6040,-0.582031,-0.415527,0.65332,0
6060,-0.580566,-0.416016,0.648926,0
6080,-0.582031,-0.410645,0.655762,0
6100,-0.59082,-0.400879,0.666992,0
6110,-0.583496,-0.399902,0.664551,0
6130,-0.57666,-0.398438,0.661621,0
6150,-0.57666,-0.40332,0.658203,0
6170,-0.580566,-0.400391,0.658691,0
6190,-0.582031,-0.402832,0.662598,0
6210,-0.583496,-0.397461,0.661621,0
6230,-0.581055,-0.40625,0.663086,0
6250,-0.574219,-0.397461,0.666504,0
6270,-0.57959,-0.402832,0.668945,0
6290,-0.577637,-0.392578,0.662598,0
6310,-0.57373,-0.399414,0.665527,0
6330,-0.575684,-0.399902,0.662598,0
6350,-0.580566,-0.395996,0.669922,0
6370,-0.582031,-0.392578,0.661133,0
6390,-0.580078,-0.40625,0.660156,0
6410,-0.576172,-0.402344,0.660645,0
6430,-0.577637,-0.402832,0.667969,0
6450,-0.580078,-0.394043,0.666992,0
6470,-0.583008,-0.400391,0.667969,0
6490,-0.576172,-0.405273,0.674316,0
6510,-0.569824,-0.404297,0.66748,0
6530,-0.568848,-0.400879,0.657227,0
6550,-0.581543,-0.393555,0.657715,0
6570,-0.592773,-0.397461,0.657715,0
6590,-0.591309,-0.408203,0.662598,0
6610,-0.583496,-0.404297,0.652832,0
6630,-0.574707,-0.394531,0.65918,0
6650,-0.574707,-0.405273,0.661133,0
6670,-0.572754,-0.398438,0.668457,0
6690,-0.567871,-0.409668,0.661133,0
6710,-0.575195,-0.401367,0.659668,0
6730,-0.580566,-0.412598,0.656738,0
6750,-0.584961,-0.416504,0.653809,0
6770,-0.594727,-0.408691,0.652344,0
6790,-0.584473,-0.40332,0.657227,0
6810,-0.584473,-0.403809,0.655762,0
6830,-0.571289,-0.408691,0.648926,0
6850,-0.575684,-0.407227,0.65625,0
6870,-0.576172,-0.398926,0.665527,0
6890,-0.58252,-0.405273,0.670898,0
6910,-0.577637,-0.416992,0.659668,0
6930,-0.576172,-0.414062,0.658203,0
6950,-0.582031,-0.40332,0.650391,0
6970,-0.57959,-0.408691,0.65918,0
6990,-0.581543,-0.404785,0.664551,0
7010,-0.583008,-0.402344,0.665039,0
7030,-0.584473,-0.399902,0.660645,0
7050,-0.581055,-0.407227,0.661621,0
7070,-0.578125,-0.414062,0.655762,0
7090,-0.578613,-0.406738,0.652832,0
7110,-0.585449,-0.413574,0.651855,0
7130,-0.581055,-0.409668,0.652344,0
7150,-0.584473,-0.411133,0.664062,0
7170,-0.583008,-0.40625,0.650391,0
7190,-0.580566,-0.414062,0.654297,0
7210,-0.581055,-0.40625,0.65625,0
7230,-0.580078,-0.412109,0.652832,0
7250,-0.579102,-0.410645,0.648926,0
7270,-0.583984,-0.411621,0.65332,0
7290,-0.584473,-0.415039,0.652344,0
7310,-0.582031,-0.415527,0.660156,0
7330,-0.584473,-0.416992,0.658691,0
7350,-0.580078,-0.417969,0.656738,0
7370,-0.577637,-0.42041,0.653809,0
7390,-0.585449,-0.416504,0.649902,0
7410,-0.58252,-0.415039,0.648438,0
7430,-0.582031,-0.408203,0.644043,0
7450,-0.588867,-0.416016,0.652344,0
7470,-0.583496,-0.416016,0.651855,0
7490,-0.581055,-0.42041,0.655762,0
7510,-0.580566,-0.414551,0.652832,0
7530,-0.584473,-0.418457,0.649902,0
7550,-0.580078,-0.415039,0.653809,0
7570,-0.584961,-0.424316,0.648926,0
7590,-0.583008,-0.415039,0.654297,0
7610,-0.578613,-0.419922,0.651855,0
7630,-0.583984,-0.412598,0.654785,0
7650,-0.583984,-0.414062,0.652832,0
7670,-0.582031,-0.41748,0.650391,0
7690,-0.584473,-0.422363,0.648438,0
7710,-0.583496,-0.407227,0.651367,0
7730,-0.587402,-0.413574,0.657715,0
7750,-0.583496,-0.416992,0.654785,0
7770,-0.581543,-0.419922,0.652344,0
7790,-0.58252,-0.420898,0.645996,0
7810,-0.581543,-0.421875,0.65332,0
7830,-0.586914,-0.42041,0.649902,0
7850,-0.584473,-0.414551,0.648438,0
7870,-0.57959,-0.42041,0.650391,0
7890,-0.581055,-0.417969,0.652344,0
7910,-0.580078,-0.411621,0.657227,0
7930,-0.581543,-0.412598,0.649902,0
7950,-0.580566,-0.425293,0.64502,0
7970,-0.576172,-0.413574,0.654297,0
7990,-0.584473,-0.412109,0.649414,0
8010,-0.582031,-0.407715,0.650879,0
8030,-0.586914,-0.422852,0.650879,0
8050,-0.57959,-0.411621,0.659668,0
8070,-0.580566,-0.416504,0.646973,0
8080,-0.581543,-0.416016,0.648926,0
8100,-0.586426,-0.412109,0.653809,0
8120,-0.586426,-0.415527,0.651855,0
8140,-0.583496,-0.418457,0.657227,0
8160,-0.577148,-0.418945,0.65332,0
8180,-0.581055,-0.415039,0.65625,0
8200,-0.583008,-0.419434,0.646484,0
8220,-0.585449,-0.414551,0.647461,0
8240,-0.580078,-0.418945,0.650391,0
8260,-0.587402,-0.415039,0.647949,0
8280,-0.583984,-0.422852,0.649902,0
8300,-0.586426,-0.416504,0.649414,0
8320,-0.586426,-0.415527,0.64502,0
8340,-0.586914,-0.418945,0.647461,0
8360,-0.583984,-0.420898,0.648438,0
8380,-0.584961,-0.418945,0.65625,0
8400,-0.583496,-0.421875,0.654785,0
8420,-0.581543,-0.41748,0.652832,0
8440,-0.588867,-0.416992,0.647949,0
8460,-0.583984,-0.42334,0.654297,0
8480,-0.580566,-0.41748,0.646484,0
8500,-0.585449,-0.421875,0.652344,0
8520,-0.57959,-0.418945,0.65332,0
8540,-0.581055,-0.42041,0.63623,0
8560,-0.57959,-0.418945,0.650879,0
8580,-0.586914,-0.416504,0.65332,0
8600,-0.589844,-0.41748,0.64502,0
8620,-0.583008,-0.41748,0.643555,0
8640,-0.587891,-0.42627,0.637207,0
8660,-0.583984,-0.429688,0.646484,0
8680,-0.581543,-0.416504,0.648438,0
8700,-0.590332,-0.424316,0.642578,0
8720,-0.584473,-0.424805,0.647949,0
8740,-0.582031,-0.431152,0.648926,0
8760,-0.586914,-0.424805,0.646973,0
8780,-0.581055,-0.427734,0.650879,0
8800,-0.58252,-0.426758,0.646973,0
8820,-0.58252,-0.429688,0.641602,0
8840,-0.583496,-0.423828,0.646973,0
8860,-0.594238,-0.419922,0.641113,0
8880,-0.594238,-0.426758,0.637695,0
8900,-0.58252,-0.42041,0.64209,0
8920,-0.587402,-0.423828,0.644043,0
8940,-0.583008,-0.42334,0.646484,0
8960,-0.580566,-0.416016,0.646973,0
8980,-0.587402,-0.42041,0.645996,0
9000,-0.588379,-0.424805,0.648438,0
9020,-0.588867,-0.420898,0.646484,0
9040,-0.583496,-0.425293,0.64209,0
9060,-0.585938,-0.426758,0.643066,0
9080,-0.587402,-0.430664,0.638184,0
9100,-0.583984,-0.420898,0.645996,0
9120,-0.583496,-0.420898,0.648438,0
9140,-0.587402,-0.416992,0.644043,0
9160,-0.585938,-0.420898,0.642578,0
9180,-0.585449,-0.422852,0.649902,0
9200,-0.586914,-0.42334,0.648926,0
9220,-0.586914,-0.415527,0.641602,0
9240,-0.585449,-0.42334,0.645508,0
9260,-0.586426,-0.419922,0.642578,0
9280,-0.58252,-0.430176,0.646484,0
9300,-0.587402,-0.425293,0.640137,0
9320,-0.586914,-0.419922,0.643066,0
9340,-0.586914,-0.42041,0.645996,0
9360,-0.586914,-0.413086,0.647461,0
9380,-0.586426,-0.411621,0.648438,0
9400,-0.588867,-0.416016,0.649902,0
9420,-0.591309,-0.42041,0.64502,0
9440,-0.583984,-0.42334,0.639648,0
9460,-0.590332,-0.416016,0.651855,0
9480,-0.595215,-0.410645,0.644043,0
9500,-0.589844,-0.422363,0.649902,0
9520,-0.588867,-0.422363,0.645508,0
9540,-0.584473,-0.421387,0.647461,0
9560,-0.586426,-0.41748,0.647461,0
9580,-0.591797,-0.416992,0.646484,0
9600,-0.584961,-0.412598,0.645996,0
9620,-0.585938,-0.417969,0.650879,0
9640,-0.583984,-0.420898,0.648438,0
9660,-0.589844,-0.42334,0.651855,0
9680,-0.584473,-0.416992,0.643555,0
9700,-0.586914,-0.424805,0.644043,0
9720,-0.583984,-0.415527,0.648926,0
9740,-0.588379,-0.415039,0.645508,0
9760,-0.584961,-0.419434,0.649414,0
9780,-0.586426,-0.427734,0.645508,0
9800,-0.585938,-0.42334,0.638672,0
9820,-0.58252,-0.416992,0.645996,0
9840,-0.585938,-0.416992,0.647461,0
9860,-0.586426,-0.419922,0.651855,0
9880,-0.590332,-0.419434,0.650391,0
9900,-0.585449,-0.414551,0.651855,0
9920,-0.583984,-0.42041,0.64209,0
9940,-0.584473,-0.419922,0.649902,0
9960,-0.583984,-0.428223,0.649902,0
9980,-0.583496,-0.422363,0.647461,0
10000,-0.589355,-0.418945,0.646973,0
10020,-0.588867,-0.416504,0.645996,0
10040,-0.588379,-0.424805,0.647949,0
10060,-0.588867,-0.416504,0.644531,0
10080,-0.587402,-0.415527,0.647461,0
10100,-0.588379,-0.42041,0.641113,0
10120,-0.583496,-0.418945,0.645508,0
10140,-0.588379,-0.421387,0.649902,0
10160,-0.588867,-0.419434,0.645508,0
10180,-0.586914,-0.420898,0.651367,0
10200,-0.587402,-0.415039,0.647461,0
10220,-0.587402,-0.42041,0.647949,0
10240,-0.588379,-0.41748,0.652832,0
10260,-0.583984,-0.425293,0.650391,0
10280,-0.583496,-0.421387,0.643555,0
10300,-0.585449,-0.42334,0.649902,0
10320,-0.589844,-0.416016,0.654785,0
10340,-0.590332,-0.422852,0.648926,0
10360,-0.587891,-0.420898,0.644043,0
10370,-0.588379,-0.42334,0.643066,0
10390,-0.585449,-0.418457,0.645508,0
10410,-0.586914,-0.421387,0.64502,0
10430,-0.591309,-0.416992,0.649902,0
10450,-0.591797,-0.424316,0.643066,0
10470,-0.58252,-0.421875,0.641113,0
10490,-0.589355,-0.424316,0.651367,0
10510,-0.582031,-0.427246,0.651855,0
10530,-0.587402,-0.426758,0.635742,0
10550,-0.583984,-0.42334,0.645508,0
10570,-0.588379,-0.421875,0.643066,0
10590,-0.590332,-0.416504,0.644531,0
10610,-0.585938,-0.424316,0.64209,0
10630,-0.587891,-0.433594,0.639648,0
10650,-0.589844,-0.422852,0.639648,0
10670,-0.589844,-0.42041,0.645508,0
10690,-0.588867,-0.417969,0.640625,0
10710,-0.587891,-0.419922,0.648926,0
10730,-0.588867,-0.419922,0.645508,0
10750,-0.585449,-0.423828,0.646484,0
10770,-0.583984,-0.41748,0.650391,0
10790,-0.587402,-0.421875,0.64502,0
10810,-0.581543,-0.423828,0.644043,0
10830,-0.588867,-0.422363,0.650879,0
10850,-0.587402,-0.422363,0.643066,0
10870,-0.588379,-0.421875,0.64502,0
10890,-0.587402,-0.421387,0.642578,0
10910,-0.588379,-0.421387,0.647461,0
10930,-0.586426,-0.421387,0.649414,0
10950,-0.589844,-0.422363,0.638672,0
10970,-0.586914,-0.42334,0.644043,0
10990,-0.587402,-0.424316,0.645508,0
11010,-0.587402,-0.425781,0.644043,0
11030,-0.585938,-0.419434,0.650879,0
11050,-0.586426,-0.428711,0.643555,0
11070,-0.590332,-0.41748,0.64209,0
11090,-0.588867,-0.422852,0.638184,0
11110,-0.588379,-0.418945,0.646484,0
11130,-0.583984,-0.424805,0.645996,0
11150,-0.588867,-0.425293,0.644043,0
11170,-0.586914,-0.421387,0.648438,0
11190,-0.59082,-0.416992,0.650391,0
11210,-0.588379,-0.420898,0.644043,0
11230,-0.582031,-0.430176,0.643555,0
11250,-0.586914,-0.421875,0.643066,0
11270,-0.583496,-0.420898,0.646484,0
11290,-0.584961,-0.422852,0.638184,0
11310,-0.583984,-0.441406,0.646484,0
11330,-0.583496,-0.458008,0.631836,0
11350,-0.576172,-0.484375,0.64209,0
11370,-0.601074,-0.538086,0.633301,0
11390,-0.600586,-0.552246,0.717285,0
11410,-0.628418,-0.464355,0.703613,0
11430,-0.574219,-0.491699,0.671387,0
11450,-0.530762,-0.490234,0.70166,0
11470,-0.495605,-0.506836,0.837891,0
11480,-0.480469,-0.535156,0.924316,0
11500,-0.463867,-0.602051,0.908203,0
11520,-0.387695,-0.64209,0.930664,0
11540,-0.28418,-0.651855,0.960938,0
11560,-0.188477,-0.625,0.935547,0
11580,-0.132324,-0.590332,0.918945,0
11600,-0.100586,-0.564453,0.911133,0
11620,-0.0766602,-0.562988,0.887207,0
11640,-0.0727539,-0.563965,0.866211,0
11660,-0.065918,-0.58252,0.854004,0
11680,-0.0537109,-0.554688,0.84668,0
11700,-0.0678711,-0.542969,0.823242,0
11740,0.00537109,-0.559082,0.742188,0
11770,-0.0258789,-0.59668,0.678711,0
11790,-0.015625,-0.617676,0.62793,0
11810,0.0161133,-0.599609,0.600586,0
11830,0.00341797,-0.586426,0.598145,0
11850,-0.0366211,-0.5625,0.568848,0
11870,-0.00439453,-0.59375,0.548828,0
11890,0.0727539,-0.597168,0.536133,0
11910,0.106934,-0.605469,0.533203,0
11930,0.0976562,-0.634277,0.515137,0
11950,0.09375,-0.681641,0.504883,0
11970,0.13623,-0.6875,0.502441,0
11990,0.169434,-0.682129,0.493652,0
12010,0.175293,-0.690918,0.450195,0
12030,0.166504,-0.709473,0.460938,0
12050,0.177734,-0.724609,0.461914,0
12070,0.209961,-0.743652,0.432617,0
12090,0.231445,-0.77002,0.441895,0
12110,0.227051,-0.76709,0.456055,0
12130,0.198242,-0.783203,0.441895,0
12150,0.225098,-0.779297,0.439941,0
12170,0.236328,-0.762695,0.437012,0
12190,0.196289,-0.750488,0.413086,0
12210,0.200684,-0.773438,0.418457,0
12230,0.226562,-0.80957,0.410156,0
12250,0.234863,-0.827148,0.395508,0
12270,0.226562,-0.806641,0.401855,0
12290,0.219238,-0.809082,0.416504,0
12310,0.244629,-0.835938,0.425293,0
12330,0.254883,-0.830566,0.392578,0
12350,0.229492,-0.818359,0.407227,0
12370,0.209961,-0.833008,0.441406,0
12390,0.212402,-0.86377,0.411133,0
12410,0.218262,-0.85791,0.404785,0
12430,0.22168,-0.845215,0.409668,0
12450,0.218262,-0.861816,0.415527,0
12470,0.224609,-0.843262,0.403809,0
12490,0.22168,-0.84082,0.396484,0
12510,0.202148,-0.856934,0.411133,0
12530,0.208008,-0.856934,0.405762,0
12550,0.215332,-0.88623,0.391602,0
12570,0.231934,-0.864258,0.410156,0
12590,0.230469,-0.843262,0.405762,0
12610,0.206055,-0.831055,0.393555,0
12630,0.206055,-0.829102,0.394531,0
12650,0.20752,-0.835449,0.397461,0
12670,0.198242,-0.862793,0.382812,0
12690,0.196777,-0.864746,0.396973,0
12710,0.20166,-0.854492,0.402344,0
12730,0.198242,-0.839355,0.387207,0
12750,0.194824,-0.853516,0.379395,0
12770,0.197754,-0.861328,0.385254,0
12790,0.192871,-0.849121,0.387207,0
12810,0.183105,-0.851074,0.394531,0
12830,0.200684,-0.855469,0.403809,0
12850,0.228516,-0.819336,0.410645,0
12870,0.217773,-0.836426,0.416016,0
12890,0.217285,-0.825195,0.411133,0
12910,0.223145,-0.850586,0.413086,0
12930,0.25,-0.806641,0.415527,0
12950,0.238281,-0.837891,0.410645,0
12970,0.228027,-0.80957,0.40332,0
12990,0.230469,-0.834473,0.410645,0
13010,0.260742,-0.807129,0.407227,0
13030,0.254395,-0.820801,0.411621,0
13050,0.242676,-0.818848,0.404785,0
13070,0.233398,-0.823242,0.412109,0
13090,0.240723,-0.831543,0.415527,0
13110,0.266602,-0.821777,0.420898,0
13130,0.276367,-0.806152,0.419434,0
13150,0.273438,-0.825684,0.397949,0
13170,0.256836,-0.812988,0.426758,0
13190,0.289062,-0.831543,0.437988,0
13210,0.341797,-0.82373,0.444824,0
13230,0.36377,-0.801758,0.453613,0
13250,0.354004,-0.783691,0.451172,0
13270,0.384277,-0.797852,0.437012,0
13290,0.416504,-0.796875,0.433105,0
13310,0.38916,-0.758301,0.427246,0
13330,0.355469,-0.791016,0.456543,0
13350,0.366211,-0.821289,0.44873,0
13370,0.391602,-0.76709,0.412598,0
13390,0.325684,-0.736816,0.460449,0
13400,0.288574,-0.807129,0.477539,0
13420,0.335449,-0.749512,0.461914,0
13440,0.369629,-0.683105,0.426758,0
13460,0.308594,-0.674316,0.467773,0
13480,0.303711,-0.692871,0.442383,0
13500,0.328125,-0.770508,0.493164,0
13520,0.332031,-0.788086,0.470215,0
13540,0.325684,-0.773926,0.498047,0
13560,0.370605,-0.76123,0.474609,0
13580,0.380859,-0.741699,0.474121,0
13600,0.376465,-0.741211,0.484375,0
13620,0.411133,-0.758301,0.45752,0
13640,0.408691,-0.765625,0.48291,0
13660,0.400879,-0.77002,0.496582,0
13690,0.40625,-0.738281,0.474121,0
13730,0.366699,-0.741699,0.480469,0
13750,0.361816,-0.73291,0.506836,0
13760,0.370117,-0.679688,0.414551,0
13780,0.310547,-0.744629,0.470215,0
13800,0.265625,-0.81543,0.481445,0
13820,0.295898,-0.860352,0.44043,0
13840,0.303223,-0.836426,0.44873,0
13860,0.245117,-0.811523,0.46875,0
13880,0.243652,-0.766113,0.469727,0
13900,0.303711,-0.789551,0.42334,0
13920,0.266602,-0.753906,0.450195,0
13940,0.254395,-0.825195,0.450684,0
13960,0.27832,-0.825195,0.431152,0
13980,0.236328,-0.831055,0.420898,0
14000,0.201172,-0.809082,0.435547,0
14020,0.23584,-0.781738,0.437988,0
14040,0.239746,-0.783203,0.430176,0
14060,0.248047,-0.786621,0.435059,0
14080,0.245117,-0.78418,0.440918,0
14100,0.253418,-0.843262,0.436523,0
14120,0.264648,-0.824707,0.446777,0
14140,0.263672,-0.804688,0.447266,0
14160,0.279297,-0.795898,0.430664,0
14180,0.280273,-0.813965,0.416504,0
14200,0.279785,-0.832031,0.433594,0
14220,0.275391,-0.824219,0.431152,0
14240,0.251953,-0.845215,0.415039,0
14260,0.259277,-0.829102,0.420898,0
14280,0.302734,-0.787109,0.390137,0
14300,0.278809,-0.787598,0.429688,0
14320,0.256348,-0.837402,0.425293,0
14340,0.296387,-0.853516,0.42041,0
14360,0.312988,-0.845215,0.411621,0
14380,0.30127,-0.812012,0.422363,0
14400,0.304199,-0.822754,0.400879,0
14420,0.302734,-0.82666,0.391113,2000
14440,0.291504,-0.779785,0.396973,0
14460,0.253906,-0.774902,0.391113,0
14480,0.233398,-0.811523,0.393066,0
14500,0.260742,-0.830566,0.383301,0
14520,0.237793,-0.822754,0.404785,0
14540,0.242676,-0.833984,0.39502,0
14560,0.261719,-0.84668,0.382812,0
14580,0.26709,-0.84082,0.392578,0
14600,0.289551,-0.827637,0.407227,0
14620,0.268555,-0.82373,0.400391,0
14640,0.256348,-0.822266,0.403809,0
14660,0.260742,-0.845215,0.416992,0
14680,0.269531,-0.858398,0.406738,0
14700,0.259766,-0.844238,0.401367,0
14720,0.253418,-0.82373,0.407715,0
14740,0.244141,-0.816406,0.411621,0
14760,0.242676,-0.830078,0.40625,0
14780,0.24707,-0.856445,0.399902,0
14800,0.236328,-0.852539,0.40625,0
14820,0.213867,-0.841797,0.395996,0
14840,0.209961,-0.839844,0.383789,0
14860,0.227539,-0.82373,0.395996,0
14880,0.231934,-0.839355,0.401367,0
14900,0.234375,-0.840332,0.412109,0
14920,0.244141,-0.823242,0.415527,0
14940,0.273926,-0.815918,0.408203,0
14960,0.294922,-0.817383,0.412598,0
14980,0.277832,-0.824707,0.412109,0
15000,0.255371,-0.831055,0.396973,0
15020,0.246094,-0.838867,0.395508,0
15040,0.254395,-0.839844,0.382812,0
15060,0.231934,-0.835938,0.393066,0
15080,0.203125,-0.824707,0.378418,0
15100,0.19873,-0.833008,0.380859,0
15120,0.222168,-0.851562,0.407715,0
15140,0.254883,-0.836426,0.414062,0
15160,0.231934,-0.818359,0.405762,0
15180,0.239746,-0.810059,0.40625,0
15200,0.261719,-0.834961,0.413086,0
15220,0.285156,-0.852051,0.409668,0
15240,0.288086,-0.843262,0.402344,0
15260,0.274902,-0.852539,0.390625,0
15280,0.276367,-0.833008,0.408691,0
15300,0.278809,-0.823242,0.402832,0
15320,0.269531,-0.836426,0.394043,0
15340,0.265137,-0.841797,0.399902,0
15360,0.276855,-0.816406,0.409668,0
15380,0.274414,-0.810059,0.401855,0
15400,0.264648,-0.819824,0.394531,0
15420,0.282715,-0.821289,0.409668,0
15440,0.305664,-0.804688,0.421387,0
15460,0.296387,-0.814453,0.400879,0
15480,0.316895,-0.824219,0.397461,0
15500,0.323242,-0.807129,0.398438,0
15520,0.302734,-0.793945,0.397461,0
15540,0.289062,-0.818848,0.404297,0
15560,0.299316,-0.815918,0.410645,0
15580,0.296875,-0.806641,0.405762,0
15600,0.279785,-0.80957,0.40332,0
15620,0.276855,-0.810059,0.412109,0
15640,0.295898,-0.788574,0.42334,0
15660,0.302734,-0.796875,0.421387,0
15680,0.291504,-0.811523,0.418945,0
15700,0.305664,-0.807617,0.420898,0
15720,0.312988,-0.790039,0.431152,0
15740,0.32373,-0.786621,0.432129,0
15760,0.320801,-0.800293,0.417969,0
15780,0.300293,-0.781738,0.424316,0
15800,0.284668,-0.759766,0.442383,0
15820,0.306641,-0.753906,0.45166,0
15830,0.359375,-0.766113,0.443848,0
15850,0.366699,-0.746094,0.442871,0
15870,0.345215,-0.729004,0.442871,0
15890,0.40918,-0.749023,0.457031,0
15910,0.416016,-0.741699,0.455566,0
15930,0.365234,-0.713867,0.454102,0
15950,0.367676,-0.714355,0.449707,0
15970,0.427734,-0.728516,0.462891,0
15990,0.446289,-0.711426,0.481445,0
16010,0.425781,-0.70459,0.481445,0
16030,0.401367,-0.706543,0.467773,0
16050,0.438477,-0.720703,0.462402,0
16070,0.463379,-0.701172,0.498047,0
16090,0.45459,-0.677246,0.493164,0
16110,0.45166,-0.696289,0.477539,0
16130,0.428223,-0.681152,0.481445,0
16150,0.446289,-0.688477,0.501953,0
16170,0.463379,-0.675781,0.492188,0
16190,0.466797,-0.676758,0.496582,0
16210,0.452148,-0.661621,0.492188,0
16230,0.449219,-0.658691,0.510254,0
16250,0.45459,-0.65332,0.500488,0
16270,0.460449,-0.66748,0.495605,0
16290,0.456543,-0.652344,0.512207,0
16310,0.452148,-0.645996,0.522949,0
16330,0.470703,-0.662598,0.501953,0
16350,0.473145,-0.661133,0.498047,0
16370,0.480957,-0.623535,0.529785,0
16390,0.48291,-0.615234,0.524414,0
16410,0.477539,-0.631836,0.5,0
16430,0.478027,-0.62793,0.506348,0
16450,0.499023,-0.616211,0.499512,0
16470,0.513672,-0.614258,0.497559,0
16490,0.508301,-0.614258,0.5,0
16510,0.499512,-0.617676,0.491211,0
16530,0.489258,-0.611816,0.501465,0
16550,0.512207,-0.603027,0.505371,0
16570,0.506836,-0.599609,0.508301,0
16590,0.506348,-0.606934,0.496094,0
16610,0.490234,-0.597656,0.504883,0
16630,0.513184,-0.594727,0.509277,0
16650,0.512207,-0.60498,0.508789,0
16670,0.524414,-0.586914,0.514648,0
16690,0.519043,-0.582031,0.524902,0
16710,0.514648,-0.57666,0.521973,0
16730,0.528809,-0.585449,0.52832,0
16740,0.535156,-0.57666,0.52002,0
16760,0.529785,-0.566406,0.526367,0
16780,0.53418,-0.564941,0.516113,0
16800,0.550293,-0.571289,0.513184,0
16820,0.545898,-0.567383,0.520508,0
16840,0.530273,-0.545898,0.529785,0
16860,0.536621,-0.552734,0.524414,0
16880,0.53418,-0.558594,0.522461,0
16900,0.549316,-0.555176,0.530762,0
16930,0.515625,-0.541016,0.53125,0
16960,0.545898,-0.541992,0.538086,0
16970,0.562012,-0.564941,0.541992,0
16990,0.554199,-0.564453,0.544434,0
17010,0.555664,-0.530273,0.558594,0
17040,0.535156,-0.539062,0.553223,0
17060,0.552734,-0.55127,0.544922,0
17070,0.564941,-0.545898,0.543457,0
17090,0.53418,-0.53125,0.543945,0
17110,0.53418,-0.518555,0.537109,0
17130,0.529297,-0.536621,0.532715,0
17140,0.547363,-0.525879,0.532227,0
17160,0.534668,-0.517578,0.528809,0
17180,0.539062,-0.520508,0.536133,0
17200,0.554199,-0.521973,0.541016,0
17220,0.560547,-0.525391,0.529297,0
17240,0.56543,-0.518066,0.540039,0
17260,0.562988,-0.512695,0.537109,0
17280,0.552246,-0.511719,0.527344,0
17300,0.566406,-0.508301,0.533203,0
17320,0.57666,-0.508789,0.536621,0
17340,0.573242,-0.512207,0.535156,0
17380,0.5625,-0.502441,0.550781,0
17410,0.569824,-0.530762,0.558105,0
17430,0.567871,-0.527832,0.557617,0
17450,0.542969,-0.515625,0.566406,0
17470,0.551758,-0.519043,0.556152,0
17490,0.541016,-0.519531,0.561035,0
17510,0.553223,-0.511719,0.567383,0
17530,0.555664,-0.517578,0.571777,0
17550,0.52832,-0.507812,0.566406,0
17570,0.519043,-0.493652,0.572266,0
17590,0.541504,-0.501953,0.579102,0
17610,0.543457,-0.502441,0.575684,0
17630,0.532715,-0.492188,0.578613,0
17650,0.527832,-0.484375,0.587402,0
17670,0.529297,-0.499023,0.590332,0
17690,0.538086,-0.503418,0.579102,0
17710,0.550293,-0.505371,0.585938,0
17730,0.543457,-0.506348,0.583008,0
17750,0.527344,-0.504883,0.593262,0
17770,0.541016,-0.497559,0.601562,0
17790,0.518555,-0.486816,0.600586,0
17810,0.535156,-0.485352,0.602539,0
17830,0.527832,-0.494141,0.59668,0
17850,0.519043,-0.49707,0.594238,0
17870,0.537598,-0.491699,0.598145,0
17890,0.536621,-0.494629,0.59082,0
17910,0.529785,-0.494629,0.592773,0
17930,0.53418,-0.495117,0.587402,0
17950,0.541992,-0.507324,0.574707,0
17970,0.528809,-0.495117,0.593262,0
17990,0.532715,-0.492188,0.597656,0
18010,0.538086,-0.490234,0.585449,0
18030,0.555176,-0.490234,0.585938,0
18050,0.547363,-0.485352,0.589355,0
18070,0.53125,-0.47998,0.570312,0
18090,0.524902,-0.489746,0.586426,0
18110,0.530273,-0.496582,0.580078,0
18130,0.542969,-0.513184,0.575195,0
18150,0.523438,-0.493652,0.561035,0
18170,0.501465,-0.491211,0.570801,0
18190,0.525879,-0.477539,0.578125,0
18200,0.533691,-0.493652,0.58252,0
18230,0.523926,-0.50293,0.575684,0
18250,0.495117,-0.510254,0.589844,0
18270,0.460938,-0.502441,0.591309,0
18290,0.48584,-0.508789,0.583984,0
18300,0.527344,-0.515137,0.598145,0
18320,0.52002,-0.509277,0.578125,0
18340,0.50293,-0.538086,0.586426,0
18360,0.474609,-0.535645,0.589844,0
18380,0.492188,-0.542969,0.588379,0
18400,0.511719,-0.530273,0.584473,0
18420,0.516602,-0.521973,0.589844,0
18440,0.499023,-0.519531,0.594238,0
18460,0.458984,-0.542969,0.580566,0
18480,0.469238,-0.546387,0.605469,0
18500,0.492188,-0.557129,0.614258,0
18520,0.489258,-0.523438,0.606934,0
18540,0.459961,-0.516602,0.602051,0
18560,0.453613,-0.536133,0.585938,0
18580,0.446289,-0.544922,0.596191,0
18600,0.4375,-0.554199,0.600098,0
18620,0.451172,-0.557129,0.599609,0
18640,0.492188,-0.549805,0.598633,0
18660,0.514648,-0.541992,0.591309,0
18680,0.477051,-0.547852,0.59375,0
18700,0.446289,-0.568359,0.571289,0
18720,0.467285,-0.566406,0.583984,0
18740,0.468262,-0.563477,0.574707,0
18760,0.434082,-0.570312,0.567383,0
18780,0.410645,-0.557617,0.578125,0
18800,0.414551,-0.565918,0.584473,0
18820,0.430176,-0.567871,0.57373,0
18840,0.429199,-0.571777,0.568359,0
18860,0.436035,-0.563965,0.580566,0
18880,0.442383,-0.571777,0.574707,0
18900,0.421875,-0.575684,0.565918,0
18920,0.421875,-0.58252,0.575195,0
18940,0.446289,-0.557129,0.586426,0
18960,0.417969,-0.56543,0.565918,0
18980,0.424316,-0.581055,0.571289,0
19000,0.450684,-0.579102,0.59668,0
19020,0.436035,-0.569336,0.572754,0
19040,0.40918,-0.596191,0.566406,0
19060,0.448242,-0.581055,0.604004,0
19080,0.445801,-0.564941,0.593262,0
19100,0.40918,-0.570312,0.574707,0
19120,0.408691,-0.586426,0.599121,0
19140,0.422363,-0.588867,0.61084,0
19160,0.425293,-0.598633,0.597168,0
19180,0.423828,-0.608398,0.591309,0
19200,0.423828,-0.589355,0.602539,0
19220,0.418945,-0.607422,0.588867,0
19240,0.437012,-0.61084,0.593262,0
19260,0.434082,-0.609375,0.592285,0
19280,0.404785,-0.604004,0.58252,0
19300,0.393066,-0.605469,0.595703,0
19320,0.400879,-0.602539,0.595215,0
19340,0.417969,-0.603027,0.58252,0
19360,0.416504,-0.584473,0.581055,0
19380,0.399414,-0.583008,0.564453,0
19400,0.411133,-0.583984,0.584473,0
19420,0.433594,-0.592773,0.585938,0
19440,0.420898,-0.586914,0.570801,0
19460,0.407227,-0.599121,0.569824,0
19480,0.433594,-0.595215,0.591309,0
19500,0.437988,-0.597168,0.595215,0
19520,0.42041,-0.621094,0.578613,0
19540,0.421875,-0.625488,0.583984,0
19560,0.41748,-0.61377,0.585449,0
19580,0.404297,-0.611816,0.566406,0
19600,0.421387,-0.611328,0.572266,0
19620,0.41748,-0.60791,0.581543,0
19640,0.393555,-0.625488,0.569336,0
19660,0.392578,-0.624512,0.572754,0
19680,0.384277,-0.625,0.567383,0
19700,0.397949,-0.59668,0.567871,0
19720,0.383301,-0.591797,0.563965,0
19740,0.380859,-0.611816,0.573242,0
19760,0.404785,-0.615723,0.578125,0
19780,0.404785,-0.624512,0.571777,0
19800,0.403809,-0.637695,0.570312,0
19820,0.419922,-0.630371,0.566406,0
19840,0.383789,-0.611816,0.568359,0
19860,0.358398,-0.611816,0.566895,0
19880,0.379883,-0.617676,0.57666,0
19900,0.371582,-0.616699,0.58252,0
19920,0.344727,-0.628418,0.581543,0
19940,0.372559,-0.637695,0.586426,0
19960,0.399902,-0.637695,0.57959,0
19980,0.367188,-0.623535,0.583008,0
20000,0.357422,-0.633789,0.574707,0
20020,0.384766,-0.638672,0.589355,0
20040,0.382324,-0.634766,0.584961,0
20060,0.373535,-0.622559,0.585938,0
20080,0.38623,-0.618652,0.583496,0
20100,0.381836,-0.629883,0.557129,0
20120,0.404785,-0.63623,0.55957,0
20140,0.432617,-0.634766,0.574219,0
20160,0.408203,-0.628906,0.568359,0
20180,0.375488,-0.628418,0.576172,0
20200,0.402832,-0.623535,0.57666,0
20220,0.416992,-0.640137,0.566406,0
20240,0.401855,-0.64502,0.571777,0
20260,0.359375,-0.649902,0.570312,0
20280,0.359375,-0.635254,0.567871,0
20300,0.37793,-0.624512,0.579102,0
20320,0.378418,-0.625488,0.566895,0
20340,0.371094,-0.634277,0.570801,0
20360,0.374023,-0.620605,0.574707,0
20380,0.371094,-0.631836,0.563965,0
20400,0.386719,-0.640137,0.567383,0
20420,0.412109,-0.635254,0.57373,0
20440,0.400879,-0.652832,0.569824,0
20460,0.385254,-0.63623,0.571777,0
20480,0.387695,-0.641113,0.567871,0
20500,0.400391,-0.647461,0.575195,0
20520,0.394531,-0.667969,0.570801,0
20540,0.380371,-0.655273,0.563477,0
20560,0.370117,-0.649414,0.570801,0
20580,0.375,-0.643066,0.565918,0
20600,0.376953,-0.648438,0.568359,0
20620,0.351074,-0.64502,0.550781,0
20640,0.324219,-0.654785,0.545898,0
20660,0.336914,-0.64502,0.552734,0
20680,0.370117,-0.643066,0.553223,0
20700,0.364746,-0.638672,0.554688,0
20720,0.34082,-0.64209,0.548828,0
20740,0.358887,-0.647461,0.557617,0
20760,0.375977,-0.654785,0.556641,0
20780,0.36377,-0.662598,0.549316,0
20800,0.37207,-0.658691,0.553711,0
20820,0.388184,-0.661621,0.543945,0
20840,0.394043,-0.661621,0.549316,0
20860,0.400391,-0.657227,0.549316,0
20880,0.412109,-0.65625,0.558105,0
20900,0.41748,-0.656738,0.554199,0
20920,0.423828,-0.643555,0.545898,0
20940,0.428711,-0.65918,0.541504,0
20960,0.428223,-0.653809,0.538086,0
20980,0.42627,-0.651855,0.539062,0
21000,0.428711,-0.65625,0.52832,0
21020,0.448242,-0.657715,0.525391,0
21040,0.44873,-0.646973,0.528809,0
21060,0.432617,-0.651855,0.516602,0
21080,0.442871,-0.640137,0.533691,0
21100,0.455566,-0.647949,0.532715,0
21120,0.442383,-0.652832,0.519043,0
21140,0.456543,-0.650391,0.527832,0
21160,0.461914,-0.64209,0.521973,0
21180,0.436035,-0.647949,0.512207,0
21200,0.429199,-0.659668,0.519043,0
21220,0.436035,-0.652832,0.510742,0
21240,0.410645,-0.646484,0.507812,0
21260,0.416992,-0.638184,0.512695,0
21280,0.4375,-0.634766,0.519531,0
21300,0.427246,-0.645508,0.502441,0
21320,0.407227,-0.664551,0.502441,0
21340,0.417969,-0.657715,0.514648,0
21360,0.417969,-0.658691,0.507812,0
21380,0.411133,-0.656738,0.500488,0
21400,0.407715,-0.652344,0.515137,0
21420,0.405273,-0.643066,0.513672,0
21440,0.416504,-0.658691,0.491211,0
21460,0.44873,-0.658691,0.513672,0
21480,0.460449,-0.658691,0.524414,0
21500,0.456543,-0.662598,0.516602,0
21520,0.450195,-0.672852,0.510742,0
21540,0.450684,-0.664062,0.513184,0
21560,0.462891,-0.661133,0.51416,0
21580,0.457031,-0.657715,0.509766,0
21600,0.442383,-0.660645,0.500977,0
21620,0.441895,-0.660645,0.501953,0
21640,0.451172,-0.649902,0.500488,0
21660,0.458984,-0.652344,0.501465,0
21680,0.462402,-0.632812,0.508301,0
21700,0.455566,-0.646484,0.501465,0
21710,0.456055,-0.651855,0.500488,0
21730,0.473145,-0.657715,0.505371,0
21750,0.46582,-0.648438,0.506348,0
21770,0.455566,-0.651367,0.504883,0
21790,0.456055,-0.653809,0.499023,0
21810,0.477051,-0.65625,0.500977,0
21840,0.470215,-0.631348,0.510742,0
21880,0.478516,-0.625977,0.495117,0
21900,0.479004,-0.636719,0.497559,0
21930,0.472168,-0.629395,0.494141,0
21950,0.479004,-0.632324,0.485352,0
21970,0.486816,-0.62207,0.489258,0
22010,0.484863,-0.621094,0.483887,0
22030,0.494629,-0.620117,0.484375,0
22050,0.519531,-0.619141,0.485352,0
22070,0.516602,-0.611816,0.487305,0
22110,0.524902,-0.60791,0.493652,0
22130,0.53418,-0.620605,0.496094,0
22150,0.519531,-0.606445,0.496582,0
22170,0.513672,-0.60498,0.489746,0
22190,0.515625,-0.611816,0.475098,0
22210,0.526367,-0.599121,0.481934,0
22230,0.54248,-0.590332,0.494629,0
22250,0.564941,-0.603516,0.493164,0
22270,0.561523,-0.606445,0.492676,0
22290,0.534668,-0.589844,0.496094,0
22310,0.535645,-0.573242,0.500488,0
22330,0.54248,-0.562988,0.485352,0
22350,0.570801,-0.572266,0.485352,0
22370,0.570312,-0.570801,0.490723,0
22390,0.547852,-0.577148,0.484375,0
22410,0.546875,-0.589355,0.474609,0
22430,0.580566,-0.592285,0.472168,0
22450,0.587402,-0.574707,0.491699,0
22470,0.574707,-0.568359,0.490234,0
22490,0.575195,-0.566406,0.477539,0
22510,0.58252,-0.56543,0.480469,0
22530,0.585938,-0.556152,0.480957,0
22550,0.594238,-0.560547,0.48291,0
22570,0.570801,-0.556641,0.477051,0
22590,0.571777,-0.554199,0.487305,0
22610,0.592773,-0.562988,0.48877,0
22630,0.591309,-0.577637,0.463379,0
22650,0.604492,-0.560059,0.474121,0
22670,0.588379,-0.539551,0.483887,0
22690,0.569336,-0.529785,0.478027,0
22710,0.598145,-0.536621,0.469727,0
22730,0.611816,-0.530762,0.47998,0
22750,0.60498,-0.529785,0.477539,0
22770,0.612305,-0.522461,0.474121,0
22790,0.632812,-0.528809,0.464355,0
22810,0.600586,-0.527832,0.467285,0
22830,0.597168,-0.52832,0.468262,0
22850,0.611328,-0.524414,0.464355,0
22870,0.629395,-0.512695,0.466797,0
22890,0.635742,-0.505859,0.464355,0
22910,0.622559,-0.497559,0.469238,0
22930,0.626465,-0.503418,0.469238,0
22950,0.629395,-0.508301,0.472168,0
22970,0.645996,-0.50293,0.460938,0
22990,0.642578,-0.493652,0.462402,0
23010,0.616699,-0.486328,0.471191,0
23030,0.617188,-0.473633,0.470215,0
23050,0.646484,-0.490234,0.464844,0
23070,0.652832,-0.504883,0.467773,0
23090,0.642578,-0.5,0.458008,0
23110,0.619629,-0.487305,0.447266,0
23130,0.629395,-0.478516,0.45166,0
23150,0.677734,-0.478516,0.459961,0
23190,0.64209,-0.475098,0.459961,0
23210,0.65332,-0.479004,0.465332,0
23230,0.663086,-0.486328,0.47168,0
23250,0.696289,-0.472656,0.470215,0
23270,0.711914,-0.458496,0.480957,0
23290,0.67041,-0.449707,0.469238,0
23310,0.673828,-0.455566,0.469238,0
23330,0.657227,-0.46875,0.447754,0
23350,0.65625,-0.468262,0.458984,0
23370,0.673828,-0.449707,0.46582,0
23390,0.665039,-0.439453,0.461426,0
23410,0.691406,-0.427246,0.468262,0
23430,0.677734,-0.426758,0.469238,0
23450,0.664551,-0.421875,0.476562,0
23470,0.675293,-0.431152,0.46875,0
23490,0.678223,-0.42334,0.466797,0
23510,0.711426,-0.408691,0.469238,0
23530,0.673828,-0.407227,0.461426,0
23550,0.691895,-0.399902,0.461426,0
23560,0.709961,-0.398438,0.453613,0
23580,0.731445,-0.408203,0.464355,0
23600,0.732422,-0.398926,0.473145,0
23620,0.712891,-0.374023,0.475098,0
23640,0.706543,-0.380859,0.464355,0
23660,0.726074,-0.390137,0.460938,0
23680,0.734863,-0.395508,0.459961,0
23700,0.710938,-0.385742,0.46875,0
23720,0.709473,-0.385254,0.46582,0
23740,0.709961,-0.381836,0.450195,0
23760,0.723633,-0.369141,0.47168,0
23780,0.708008,-0.358887,0.474609,0
23800,0.680176,-0.365234,0.473145,0
23820,0.697754,-0.354492,0.469727,0
23840,0.723633,-0.36084,0.478516,0
23860,0.733398,-0.360352,0.461426,0
23880,0.748535,-0.355957,0.472168,0
23900,0.738281,-0.344238,0.469238,0
23920,0.72168,-0.349121,0.46582,0
23940,0.741211,-0.352051,0.462402,0
23960,0.748047,-0.344727,0.459473,0
23980,0.748535,-0.345703,0.456543,0
24000,0.715332,-0.339355,0.463867,0
24020,0.712402,-0.34375,0.471191,0
24040,0.714844,-0.342773,0.468262,0
24060,0.72168,-0.334473,0.479004,0
24080,0.73291,-0.328613,0.472168,0
24100,0.733887,-0.339355,0.462402,0
24120,0.731934,-0.336914,0.465332,0
24140,0.738281,-0.342773,0.472656,0
24160,0.736328,-0.343262,0.468262,0
24180,0.744629,-0.330078,0.476562,0
24200,0.730957,-0.3125,0.470703,0
24220,0.738281,-0.325195,0.473633,0
24240,0.756836,-0.333008,0.474121,0
24260,0.734863,-0.296387,0.491211,0
24280,0.755859,-0.295898,0.48291,0
24300,0.742188,-0.311035,0.456055,0
24320,0.745117,-0.304688,0.467773,0
24340,0.741699,-0.294434,0.474609,0
24360,0.731445,-0.290039,0.474121,0
24380,0.727051,-0.290039,0.46582,0
24400,0.736328,-0.289551,0.473145,0
24420,0.740723,-0.276855,0.480957,0
24440,0.71875,-0.285156,0.467285,0
24460,0.729004,-0.278809,0.468262,0
24480,0.728027,-0.277832,0.489258,0
24500,0.739258,-0.282227,0.482422,0
24520,0.741211,-0.288086,0.484863,0
24550,0.74707,-0.289551,0.475098,0
24570,0.76416,-0.285645,0.492188,0
24590,0.760254,-0.26123,0.511719,0
24610,0.762695,-0.249512,0.494141,0
24640,0.742188,-0.265137,0.495605,0
24660,0.749023,-0.266602,0.504883,0
24680,0.763672,-0.252441,0.499023,0
24700,0.751953,-0.24707,0.489746,0
24720,0.75,-0.243652,0.502441,0
24740,0.762207,-0.24707,0.50293,0
24760,0.766602,-0.247559,0.494629,0
24780,0.763184,-0.230469,0.487793,0
24800,0.741699,-0.218262,0.488281,0
24820,0.748047,-0.216797,0.490234,0
24840,0.753418,-0.21875,0.48877,0
24860,0.758789,-0.215332,0.484863,0
24880,0.745117,-0.209961,0.486816,0
24900,0.739258,-0.210938,0.482422,0
24920,0.75,-0.213379,0.480957,0
24940,0.757812,-0.20459,0.491699,0
24960,0.777832,-0.193359,0.505859,0
24980,0.757324,-0.182129,0.498535,0
25000,0.740723,-0.198242,0.492188,0
25020,0.740723,-0.217285,0.481445,0
25040,0.75293,-0.215332,0.484375,0
25060,0.771973,-0.216797,0.483887,0
25080,0.75293,-0.209473,0.489746,0
25110,0.739746,-0.215332,0.492676,0
25130,0.756836,-0.216797,0.498047,0
25150,0.774414,-0.197266,0.505371,0
25170,0.754883,-0.193359,0.498535,0
25190,0.744141,-0.196777,0.492188,0
25210,0.758301,-0.205078,0.5,0
25230,0.787598,-0.201172,0.513184,0
25250,0.763184,-0.199219,0.50293,0
25260,0.737793,-0.181641,0.504883,0
25280,0.778809,-0.19873,0.507324,0
25300,0.737793,-0.215332,0.491211,0
25320,0.728027,-0.192383,0.518555,0
25340,0.745117,-0.172363,0.519531,0
25360,0.76123,-0.169922,0.516602,0
25380,0.779785,-0.178223,0.519043,0
25400,0.766602,-0.177246,0.529785,0
25420,0.716309,-0.182129,0.521973,0
25440,0.72168,-0.184082,0.532715,0
25460,0.75293,-0.183594,0.53125,0
25480,0.758789,-0.165527,0.534668,0
25500,0.742676,-0.171387,0.539062,0
25520,0.73877,-0.180176,0.541504,0
25540,0.753906,-0.181641,0.543945,0
25560,0.778809,-0.182617,0.546875,0
25580,0.706055,-0.175781,0.52832,0
25600,0.680176,-0.160156,0.547852,0
25620,0.712402,-0.177734,0.543457,0
25640,0.739258,-0.182129,0.537598,0
25660,0.750977,-0.166016,0.547852,0
25680,0.713867,-0.147461,0.549805,0
25700,0.715332,-0.174805,0.539062,0
25720,0.71875,-0.186523,0.532227,0
25740,0.743652,-0.197754,0.546387,0
25760,0.717285,-0.1875,0.543945,0
25780,0.677734,-0.188477,0.541504,0
25800,0.698242,-0.193359,0.554199,0
25820,0.705078,-0.200684,0.552246,0
25840,0.70459,-0.193359,0.548828,0
25860,0.696289,-0.187012,0.545898,0
25880,0.692383,-0.203613,0.556152,0
25900,0.719727,-0.216797,0.555664,0
25920,0.714844,-0.213867,0.553223,0
25940,0.680664,-0.208496,0.558594,0
25960,0.63623,-0.195801,0.569824,0
25980,0.669434,-0.210449,0.573242,0
26000,0.691895,-0.21582,0.574219,0
26020,0.691406,-0.209473,0.55957,0
26040,0.708008,-0.224609,0.566406,0
26060,0.703125,-0.220215,0.568848,0
26080,0.67334,-0.21875,0.566406,0
26100,0.6875,-0.222168,0.579102,0
26120,0.706055,-0.224609,0.573242,0
26140,0.728027,-0.21875,0.564941,0
26160,0.72168,-0.22998,0.578125,0
26180,0.684082,-0.226562,0.565918,0
26200,0.689941,-0.247559,0.565918,0
26220,0.700195,-0.23877,0.575195,0
26240,0.696289,-0.249023,0.570801,0
26260,0.696289,-0.248047,0.562988,0
26280,0.664551,-0.246094,0.566406,0
26300,0.667969,-0.235352,0.567871,0
26320,0.694336,-0.217773,0.57373,0
26340,0.692871,-0.230469,0.5625,0
26360,0.687988,-0.247559,0.552246,0
26380,0.673828,-0.251465,0.568359,0
26400,0.671875,-0.265625,0.563477,0
26420,0.684082,-0.273926,0.558105,0
26440,0.673828,-0.272461,0.568359,0
26460,0.647949,-0.276855,0.563477,0
26480,0.653809,-0.264648,0.572266,0
26500,0.668457,-0.270996,0.582031,0
26520,0.671387,-0.270508,0.574707,0
26540,0.666016,-0.28418,0.575684,0
26560,0.667969,-0.287109,0.586914,0
26580,0.667969,-0.296875,0.580566,0
26600,0.666504,-0.291992,0.583008,0
26620,0.670898,-0.287598,0.589355,0
26640,0.658203,-0.29541,0.58252,0
26660,0.644531,-0.303223,0.578613,0
26680,0.654297,-0.323242,0.588379,0
26700,0.660156,-0.311523,0.599609,0
26720,0.613281,-0.308105,0.589844,0
26740,0.595215,-0.310059,0.58252,0
26760,0.628418,-0.318848,0.588867,0
26780,0.652832,-0.321777,0.597656,0
26800,0.625977,-0.320312,0.592285,0
26820,0.58252,-0.311035,0.585449,0
26840,0.579102,-0.320801,0.59375,0
26860,0.609863,-0.319824,0.591309,0
26880,0.621582,-0.32959,0.59082,0
26900,0.603027,-0.317871,0.592285,0
26910,0.600098,-0.329102,0.587402,0
26930,0.623047,-0.328125,0.591309,0
26950,0.614746,-0.336914,0.593262,0
26970,0.612793,-0.341309,0.597168,0
26990,0.618164,-0.34082,0.593262,0
27010,0.625977,-0.333008,0.600586,0
27030,0.637695,-0.338379,0.601074,0
27050,0.618652,-0.351562,0.603027,0
27070,0.587891,-0.347656,0.611328,0
27090,0.59375,-0.365234,0.614746,0
27110,0.625,-0.370117,0.600586,0
27130,0.616699,-0.356934,0.612793,0
27150,0.571777,-0.365723,0.610352,0
27170,0.578125,-0.37793,0.611328,0
27190,0.611816,-0.377441,0.604004,0
27210,0.609863,-0.364746,0.604492,0
27230,0.580078,-0.360352,0.599609,0
27250,0.572754,-0.377441,0.612305,0
27270,0.571777,-0.385742,0.605469,0
27290,0.580566,-0.396484,0.608887,0
27310,0.587402,-0.378418,0.608398,0
27330,0.562988,-0.372559,0.598145,0
27350,0.550293,-0.37793,0.591797,0
27370,0.571289,-0.387207,0.601562,0
27390,0.581055,-0.382812,0.596191,0
27410,0.589844,-0.389648,0.596191,0
27430,0.611328,-0.374512,0.591797,0
27450,0.591797,-0.372559,0.587402,0
27470,0.580078,-0.389648,0.588379,0
27490,0.605469,-0.395508,0.585938,0
27510,0.606934,-0.400391,0.583496,0
27530,0.599609,-0.387695,0.577637,0
27550,0.593262,-0.388184,0.581543,0
27570,0.591797,-0.390625,0.582031,0
27590,0.60498,-0.406738,0.58252,0
27610,0.601074,-0.40918,0.581055,0
27630,0.584473,-0.429199,0.570801,0
27650,0.59082,-0.422363,0.58252,0
27670,0.599121,-0.423828,0.580566,0
27690,0.583496,-0.424805,0.566895,0
27710,0.577637,-0.427734,0.565918,0
27730,0.599609,-0.42334,0.580078,0
27750,0.604004,-0.438477,0.575195,0
27770,0.589844,-0.440918,0.564453,0
27790,0.597168,-0.449219,0.57373,0
27810,0.603027,-0.427734,0.575684,0
27830,0.586914,-0.437988,0.560547,0
27850,0.582031,-0.446289,0.5625,0
27870,0.587891,-0.455566,0.555664,0
27890,0.585938,-0.455566,0.562012,0
27910,0.586914,-0.453613,0.562988,0
27930,0.580566,-0.450684,0.559082,0
27950,0.554199,-0.452148,0.562988,0
27970,0.5625,-0.480469,0.553223,0
27990,0.602051,-0.475586,0.560547,0
28010,0.599121,-0.474121,0.560547,0
28030,0.561035,-0.467285,0.558105,0
28050,0.549316,-0.472656,0.554688,0
28070,0.564453,-0.479492,0.550781,0
28090,0.57373,-0.495117,0.54834,0
28110,0.577637,-0.480957,0.555176,0
28130,0.569824,-0.477539,0.552734,0
28150,0.577148,-0.476074,0.552734,0
28170,0.583008,-0.492188,0.550293,0
28190,0.57959,-0.491699,0.541016,0
28210,0.588867,-0.493164,0.545898,0
28230,0.579102,-0.484375,0.549805,0
28250,0.556152,-0.493164,0.529785,0
28270,0.563965,-0.493652,0.544922,0
28290,0.57373,-0.493652,0.538574,0
28310,0.558105,-0.489746,0.532715,0
28330,0.555664,-0.5,0.525879,0
28350,0.580566,-0.5,0.530273,0
28370,0.59082,-0.498535,0.53418,0
28390,0.553711,-0.504883,0.530762,0
28410,0.540039,-0.506836,0.529785,0
28430,0.571289,-0.515625,0.529785,0
28450,0.588867,-0.514648,0.524414,0
28470,0.572754,-0.521973,0.540039,0
28490,0.557129,-0.51416,0.524414,0
28510,0.566895,-0.535645,0.525879,0
28530,0.584961,-0.525879,0.528809,0
28550,0.564453,-0.526855,0.515625,0
28570,0.556152,-0.519531,0.515137,0
28590,0.557129,-0.52832,0.508789,0
28610,0.558105,-0.534668,0.518555,0
28630,0.582031,-0.542969,0.507812,0
28650,0.584473,-0.549316,0.493652,0
28670,0.569824,-0.547363,0.495117,0
28690,0.57666,-0.544922,0.493652,0
28710,0.574707,-0.540527,0.497559,0
28730,0.570312,-0.547852,0.492676,0
28750,0.583496,-0.546875,0.493652,0
28770,0.564941,-0.545898,0.48291,0
28790,0.555176,-0.560547,0.475098,0
28810,0.575195,-0.551758,0.485352,0
28830,0.567383,-0.546387,0.484863,0
28850,0.571289,-0.548828,0.479492,0
28870,0.584473,-0.553223,0.47998,0
28890,0.561523,-0.55957,0.472656,0
28900,0.556641,-0.556152,0.474121,0
28920,0.586426,-0.570312,0.471191,0
28940,0.588867,-0.576172,0.46582,0
28960,0.567383,-0.578125,0.451172,0
28980,0.559082,-0.580078,0.453125,0
29000,0.583008,-0.574707,0.466309,0
29020,0.588867,-0.574707,0.458008,0
29040,0.568848,-0.583008,0.444336,0
29060,0.582031,-0.591309,0.448242,0
29080,0.602051,-0.593262,0.452637,0
29100,0.603027,-0.589355,0.444336,0
29120,0.599121,-0.588379,0.431152,0
29140,0.591309,-0.57666,0.431641,0
29160,0.579102,-0.578125,0.433105,0
29180,0.585449,-0.576172,0.433594,0
29200,0.598633,-0.588379,0.431641,0
29220,0.59375,-0.597168,0.433594,0
29240,0.594238,-0.59082,0.428223,0
29260,0.602051,-0.592773,0.423828,0
29280,0.61084,-0.586914,0.420898,0
29300,0.602051,-0.601074,0.432617,0
29320,0.605469,-0.591309,0.424316,0
29340,0.612305,-0.603027,0.416504,0
29360,0.61084,-0.591797,0.402832,0
29380,0.605957,-0.589355,0.407227,0
29400,0.609375,-0.574707,0.412598,0
29420,0.603516,-0.584473,0.39502,0
29440,0.614746,-0.59082,0.392578,0
29460,0.614258,-0.59082,0.393555,0
29480,0.616699,-0.583496,0.391602,0
29500,0.621094,-0.57666,0.388184,0
29520,0.623535,-0.567871,0.388672,0
29540,0.63623,-0.562988,0.385254,0
29560,0.621582,-0.564941,0.382812,0
29580,0.624512,-0.571777,0.378906,0
29600,0.643066,-0.580078,0.381836,0
29620,0.647461,-0.57373,0.376465,0
29640,0.644531,-0.570801,0.378906,0
29660,0.652344,-0.557617,0.375,0
29680,0.649902,-0.558105,0.37207,0
29700,0.655273,-0.566406,0.370117,0
29720,0.656738,-0.562012,0.37793,0
29740,0.660156,-0.552734,0.373535,0
29760,0.665527,-0.563477,0.370605,0
29780,0.688477,-0.571777,0.368164,0
29800,0.687988,-0.562012,0.366699,0
29820,0.665527,-0.572754,0.371582,0
29840,0.681152,-0.582031,0.369141,0
29860,0.6875,-0.57373,0.357422,0
29880,0.682617,-0.555176,0.368652,0
29900,0.688965,-0.54834,0.359863,0
29920,0.70166,-0.54834,0.365234,0
29940,0.685547,-0.536133,0.365234,0
29960,0.676758,-0.530762,0.353516,0
29980,0.686523,-0.541016,0.351562,0
30000,0.692383,-0.529785,0.354004,0
30020,0.6875,-0.531738,0.349609,0
30040,0.698242,-0.526855,0.34375,0
30060,0.710938,-0.522461,0.345215,0
30080,0.699219,-0.515625,0.343262,0
30100,0.688477,-0.512207,0.341797,0
30120,0.69043,-0.519043,0.340332,0
30140,0.685059,-0.51123,0.345703,0
30160,0.711914,-0.509277,0.339844,0
30180,0.729004,-0.525391,0.32373,0
30200,0.729004,-0.513184,0.327637,0
30220,0.693848,-0.506348,0.339844,0
30240,0.709961,-0.509277,0.336426,0
30260,0.742676,-0.530273,0.337891,0
30280,0.737793,-0.508789,0.336426,0
30300,0.713379,-0.502441,0.348145,0
30320,0.718262,-0.508301,0.341797,0
30340,0.755371,-0.522949,0.337891,0
30360,0.752441,-0.51123,0.337402,0
30380,0.721191,-0.486816,0.338867,0
30400,0.726074,-0.487793,0.341797,0
30420,0.743652,-0.48584,0.336426,0
30440,0.746582,-0.483887,0.338867,0
30460,0.741211,-0.477051,0.335938,0
30480,0.727539,-0.492188,0.317871,0
30500,0.741699,-0.480469,0.331543,0
30520,0.741699,-0.473633,0.319824,0
30540,0.759277,-0.474121,0.3125,0
30560,0.758301,-0.46582,0.330566,0
30580,0.73584,-0.449219,0.318848,0
30600,0.748535,-0.449707,0.321289,0
30620,0.772949,-0.45752,0.311523,0
30640,0.786133,-0.458008,0.320312,0
30660,0.789551,-0.441895,0.306641,0
30680,0.762207,-0.439941,0.306152,0
30700,0.794434,-0.4375,0.311523,0
30720,0.778809,-0.431152,0.307617,0
30740,0.771973,-0.434082,0.302734,0
30760,0.768066,-0.427734,0.311523,0
30780,0.764648,-0.41748,0.308594,0
30800,0.786621,-0.42334,0.30127,0
30820,0.786621,-0.416992,0.304688,0
30840,0.778809,-0.405273,0.306152,0
30880,0.824707,-0.394531,0.306641,0
30900,0.812988,-0.39209,0.301758,0
30940,0.827148,-0.38623,0.295898,0
30960,0.78125,-0.375977,0.292969,0
30980,0.800293,-0.374512,0.293457,0
31000,0.797852,-0.374023,0.298828,0
31020,0.805664,-0.359375,0.300781,0
31040,0.826172,-0.346191,0.293457,0
31060,0.840332,-0.342773,0.288086,0
31080,0.810059,-0.333496,0.294922,0
31100,0.803711,-0.339355,0.299805,0
31120,0.834961,-0.340332,0.296875,0
31140,0.84375,-0.334473,0.297363,0
31160,0.855957,-0.312988,0.290527,0
31180,0.835938,-0.31543,0.289551,0
31200,0.854492,-0.309082,0.307617,0
31220,0.847168,-0.308594,0.312012,0
31240,0.829102,-0.307617,0.29834,0
31260,0.83252,-0.306641,0.29248,0
31280,0.841309,-0.305664,0.295898,0
31300,0.837402,-0.313965,0.296387,0
31320,0.825195,-0.306152,0.296875,0
31340,0.822266,-0.29834,0.292969,0
31360,0.844727,-0.275391,0.306641,0
31380,0.84375,-0.268066,0.308105,0
31400,0.845703,-0.274902,0.305664,0
31420,0.839355,-0.27832,0.316895,0
31440,0.836914,-0.274902,0.318359,0
31460,0.84082,-0.263184,0.318848,0
31480,0.845215,-0.251953,0.324707,0
31500,0.842773,-0.253906,0.333496,0
31520,0.827637,-0.255371,0.328613,0
31540,0.84082,-0.252441,0.328613,0
31560,0.851562,-0.237793,0.327148,0
31580,0.86084,-0.220703,0.326172,0
31600,0.853027,-0.219727,0.320801,0
31620,0.849609,-0.214355,0.325195,0
31640,0.858398,-0.215332,0.334961,0
31660,0.855469,-0.209961,0.323242,0
31680,0.859375,-0.211426,0.321289,0
31700,0.867188,-0.192383,0.327148,0
31720,0.858887,-0.185547,0.322754,0
31740,0.864746,-0.193848,0.314453,0
31760,0.870117,-0.191406,0.320801,0
31780,0.867188,-0.176758,0.338379,0
31800,0.853027,-0.172363,0.335938,0
31820,0.840332,-0.150391,0.333984,0
31840,0.852051,-0.15625,0.341309,0
31860,0.861328,-0.15625,0.342285,0
31880,0.858887,-0.159668,0.355469,0
31900,0.840332,-0.15625,0.358398,0
31920,0.84668,-0.142578,0.361328,0
31940,0.845215,-0.13916,0.360352,0
31960,0.873535,-0.14209,0.347168,0
31980,0.871094,-0.137207,0.355469,0
32000,0.865723,-0.115723,0.373047,0
32020,0.861816,-0.123535,0.367676,0
32040,0.871582,-0.123047,0.369629,0
32060,0.863281,-0.117676,0.375488,0
32080,0.862305,-0.106445,0.376953,0
32100,0.850586,-0.118164,0.376465,0
32120,0.840332,-0.116211,0.37207,0
32140,0.850586,-0.119629,0.37207,0
32160,0.861816,-0.104004,0.379883,0
32180,0.838867,-0.111816,0.371582,0
32200,0.838867,-0.106445,0.381348,0
32220,0.822754,-0.100098,0.392578,0
32240,0.825684,-0.100586,0.379395,0
32260,0.842285,-0.103516,0.379883,0
32270,0.844727,-0.0942383,0.394043,0
32290,0.797363,-0.0864258,0.400879,0
32310,0.796875,-0.0917969,0.399902,0
32330,0.824707,-0.0966797,0.402832,0
32350,0.82666,-0.0913086,0.405273,0
32370,0.842773,-0.074707,0.411621,0
32390,0.844238,-0.0864258,0.40625,0
32410,0.835938,-0.0849609,0.409668,0
32430,0.854004,-0.0810547,0.414062,0
32450,0.862793,-0.0737305,0.412109,0
32470,0.863281,-0.0673828,0.401855,0
32490,0.852539,-0.065918,0.398438,0
32510,0.846191,-0.0625,0.407715,0
32530,0.82666,-0.0639648,0.413086,0
32550,0.836914,-0.0708008,0.42041,0
32570,0.839355,-0.078125,0.404785,0
32590,0.845703,-0.0615234,0.410156,0
32610,0.833984,-0.0629883,0.408203,0
32630,0.837891,-0.059082,0.398438,0
32650,0.850098,-0.0566406,0.426758,0
32670,0.831543,-0.0644531,0.415039,0
32690,0.834961,-0.0703125,0.400879,0
32710,0.835449,-0.0771484,0.408203,0
32730,0.808105,-0.0825195,0.414062,0
32750,0.798828,-0.0800781,0.428711,0
32770,0.803711,-0.0952148,0.428223,0
32790,0.829102,-0.0927734,0.440918,0
32810,0.827148,-0.09375,0.445801,0
32830,0.827148,-0.100098,0.432129,0
32850,0.814453,-0.115723,0.437988,0
32870,0.80957,-0.12207,0.439453,0
32890,0.826172,-0.117676,0.459961,0
32910,0.794434,-0.108887,0.446777,0
32930,0.776367,-0.10791,0.461914,0
32950,0.79541,-0.102051,0.476562,0
32970,0.811035,-0.126953,0.48584,0
32990,0.805176,-0.143066,0.467285,0
33010,0.791504,-0.144531,0.46875,0
33030,0.803711,-0.151367,0.467285,0
33050,0.834473,-0.157715,0.459961,0
33070,0.843262,-0.134277,0.495117,0
33090,0.817383,-0.147461,0.471191,0
33110,0.838379,-0.164551,0.463379,0
33130,0.840332,-0.162598,0.461426,0
33150,0.783691,-0.147461,0.459961,0
33170,0.733887,-0.148926,0.457031,0
33190,0.740234,-0.17627,0.467285,0
33210,0.771973,-0.182129,0.46875,0
33230,0.77002,-0.179688,0.466797,0
33250,0.754395,-0.17041,0.461426,0
33270,0.743652,-0.188477,0.470703,0
33290,0.76123,-0.192871,0.471191,0
33310,0.774902,-0.206543,0.461426,0
33330,0.780762,-0.204102,0.467285,0
33350,0.773438,-0.198242,0.487305,0
33370,0.756836,-0.203613,0.476562,0
33390,0.752441,-0.225098,0.469238,0
33410,0.750977,-0.253418,0.473633,0
33430,0.763672,-0.243164,0.476074,0
33450,0.766602,-0.23877,0.477051,0
33470,0.756348,-0.235352,0.479004,0
33490,0.750488,-0.236816,0.475586,0
33510,0.733887,-0.247559,0.477051,0
33530,0.744141,-0.271484,0.480957,0
33550,0.758301,-0.26416,0.477539,0
33570,0.738281,-0.261719,0.483398,0
33590,0.714355,-0.272461,0.494629,0
33610,0.727051,-0.283691,0.496094,0
33630,0.757812,-0.282227,0.486328,0
33650,0.73877,-0.28125,0.477539,0
33670,0.690918,-0.279297,0.480957,0
33690,0.711914,-0.297363,0.491699,0
33710,0.744629,-0.299316,0.492676,0
33730,0.742676,-0.291504,0.476074,0
33750,0.73584,-0.290039,0.483887,0
33770,0.724121,-0.294434,0.477539,0
33790,0.726074,-0.317383,0.476562,0
33810,0.729004,-0.322754,0.495117,0
33830,0.720215,-0.336426,0.5,0
33850,0.728027,-0.322754,0.493164,0
33870,0.743164,-0.311035,0.492676,0
33890,0.737793,-0.304688,0.497559,0
33910,0.735352,-0.310547,0.502441,0
33930,0.739258,-0.324707,0.50293,0
33950,0.713867,-0.327637,0.510742,0
33970,0.703613,-0.332031,0.501465,0
33990,0.700195,-0.338379,0.499512,0
34010,0.719238,-0.327637,0.505859,0
34030,0.717285,-0.33252,0.518555,0
34050,0.680664,-0.315918,0.515625,0
34070,0.687012,-0.341309,0.49707,0
34090,0.725586,-0.334961,0.507812,0
34110,0.714844,-0.323242,0.496094,0
34130,0.662598,-0.319336,0.487793,0
34150,0.638672,-0.348633,0.492188,0
34170,0.684082,-0.369629,0.507812,0
34190,0.700195,-0.350098,0.498535,0
34210,0.683594,-0.333008,0.489746,0
34220,0.702148,-0.336426,0.504395,0
34240,0.715332,-0.341797,0.510742,0
34260,0.711426,-0.366211,0.495117,0
34280,0.711914,-0.376465,0.499512,0
34300,0.700195,-0.390625,0.490723,0
34320,0.686523,-0.396973,0.490723,0
34340,0.683105,-0.404785,0.515625,0
34360,0.684082,-0.375,0.515625,0
34380,0.680176,-0.387695,0.47168,0
34400,0.679688,-0.414551,0.479492,0
34420,0.67334,-0.427246,0.5,0
34440,0.669434,-0.442383,0.501465,0
34460,0.666016,-0.431152,0.487793,0
34480,0.658203,-0.433594,0.48584,0
34500,0.671387,-0.414551,0.484375,0
34520,0.65918,-0.453613,0.477051,0
34540,0.658691,-0.46875,0.473633,0
34560,0.658691,-0.474121,0.474609,0
34580,0.662109,-0.462402,0.486328,0
34600,0.654297,-0.472168,0.478516,0
34620,0.639648,-0.46582,0.484375,0
34640,0.629395,-0.476074,0.479004,0
34660,0.620605,-0.48877,0.479004,0
34680,0.625,-0.503418,0.466797,0
34700,0.645996,-0.496094,0.467285,0
34720,0.64209,-0.490234,0.461914,0
34740,0.628418,-0.488281,0.459961,0
34760,0.623535,-0.489258,0.46875,0
34780,0.646484,-0.478516,0.464844,0
34800,0.63916,-0.472656,0.459961,0
34820,0.615723,-0.494141,0.468262,0
34840,0.647461,-0.50293,0.478027,0
34860,0.62207,-0.494141,0.460449,0
34880,0.592285,-0.501465,0.463379,0
34900,0.62207,-0.512207,0.46582,0
34920,0.635742,-0.487305,0.470215,0
34940,0.608398,-0.495117,0.467773,0
34960,0.634277,-0.492188,0.482422,0
34980,0.644531,-0.501953,0.467285,0
35000,0.641113,-0.510254,0.459473,0
35020,0.625,-0.513672,0.481445,0
35040,0.62793,-0.509277,0.484863,0
35060,0.652832,-0.504395,0.472656,0
35080,0.666504,-0.482422,0.487305,0
35100,0.629395,-0.506836,0.459473,0
35120,0.644531,-0.541992,0.456055,0
35140,0.663086,-0.527832,0.47998,0
35160,0.644531,-0.521973,0.461426,0
35180,0.617676,-0.536133,0.441895,0
35200,0.643555,-0.527832,0.46582,0
35220,0.633789,-0.512207,0.468262,0
35240,0.575195,-0.541504,0.443359,0
35260,0.585449,-0.570312,0.435547,0
35280,0.617676,-0.538574,0.459473,0
35300,0.600098,-0.529785,0.442383,0
35320,0.604492,-0.544434,0.428711,0
35340,0.603027,-0.561523,0.458984,0
35360,0.600098,-0.564941,0.468262,0
35380,0.586914,-0.550293,0.456055,0
35400,0.619141,-0.549805,0.447754,0
35420,0.601562,-0.540527,0.444336,0
35440,0.556152,-0.543457,0.442383,0
35460,0.608887,-0.572266,0.458008,0
35480,0.631836,-0.561035,0.481445,0
35500,0.577637,-0.531738,0.467285,0
35520,0.56543,-0.546875,0.459473,0
35540,0.598633,-0.567871,0.456055,0
35560,0.630371,-0.568359,0.456543,0
35580,0.59375,-0.554199,0.449707,0
35600,0.5625,-0.538574,0.423828,0
35620,0.597656,-0.550293,0.421875,0
35640,0.601074,-0.557129,0.442871,0
35660,0.581543,-0.564941,0.436523,0
35680,0.600098,-0.551758,0.438477,0
35700,0.630859,-0.550781,0.452148,0
35720,0.622559,-0.54834,0.449707,0
35740,0.609375,-0.571289,0.424805,0
35760,0.606445,-0.56543,0.441895,0
35780,0.603027,-0.554199,0.466797,0
35800,0.608398,-0.550781,0.42041,0
35820,0.607422,-0.575195,0.422852,0
35840,0.620117,-0.574219,0.437988,0
35860,0.613281,-0.568359,0.432617,0
35880,0.599609,-0.568848,0.421387,0
35900,0.586914,-0.571777,0.435547,0
35920,0.622559,-0.564453,0.429199,0
35940,0.638184,-0.57373,0.43457,0
35960,0.619141,-0.570801,0.43457,0
35980,0.594238,-0.569336,0.414062,0
36000,0.606445,-0.591797,0.42041,0
36020,0.636719,-0.56543,0.446777,0
36040,0.618164,-0.559082,0.42334,0
36060,0.596191,-0.571289,0.40918,0
36080,0.623535,-0.578613,0.400391,0
36100,0.620117,-0.58252,0.394043,0
36120,0.593262,-0.583984,0.402832,0
36140,0.600098,-0.577637,0.395508,0
36160,0.614746,-0.584961,0.386719,0
36180,0.619629,-0.577637,0.398926,0
36200,0.624023,-0.584473,0.396973,0
36220,0.615723,-0.580566,0.407715,0
36240,0.629395,-0.587891,0.395508,0
36260,0.64502,-0.580078,0.390137,0
36280,0.625977,-0.576172,0.375,0
36300,0.617188,-0.585449,0.373535,0
36320,0.639648,-0.592285,0.374023,0
36340,0.64209,-0.582031,0.380859,0
36360,0.640137,-0.581543,0.369629,0
36380,0.647461,-0.577148,0.371582,0
36400,0.659668,-0.584473,0.368164,0
36420,0.664551,-0.601074,0.362793,0
36440,0.672363,-0.591309,0.362305,0
36460,0.66748,-0.592285,0.358398,0
36480,0.673828,-0.581543,0.354492,0
36500,0.671875,-0.59082,0.345703,0
36520,0.675293,-0.588867,0.347168,0
36540,0.680664,-0.591309,0.336426,0
36560,0.67334,-0.590332,0.327637,0
36580,0.676758,-0.581055,0.324219,0
36600,0.676758,-0.580566,0.32373,0
36620,0.669922,-0.599609,0.306641,0
36640,0.676758,-0.599609,0.310547,0
36660,0.680664,-0.591797,0.319336,0
36680,0.678223,-0.581055,0.301758,0
36700,0.685059,-0.598633,0.297363,0
36720,0.6875,-0.609863,0.299316,0
36740,0.691406,-0.603027,0.307129,0
36760,0.698242,-0.595215,0.303711,0
36780,0.687988,-0.590332,0.300293,0
36800,0.678711,-0.592285,0.288086,0
36820,0.687012,-0.589844,0.307617,0
36840,0.691895,-0.59082,0.286621,0
36860,0.694336,-0.594727,0.289062,0
36880,0.694336,-0.585449,0.286621,0
36900,0.692383,-0.577148,0.28125,0
36920,0.689453,-0.590332,0.282227,0
36940,0.680176,-0.596191,0.274414,0
36960,0.689453,-0.598145,0.280273,0
36980,0.684082,-0.591797,0.271973,0
37000,0.685547,-0.592773,0.272949,0
37020,0.691895,-0.57959,0.261719,0
37040,0.67627,-0.597656,0.26123,0
37060,0.695312,-0.60791,0.256836,0
37080,0.699219,-0.604004,0.272949,0
37100,0.69043,-0.589844,0.276855,0
37120,0.68457,-0.587891,0.263672,0
37140,0.689941,-0.59082,0.249512,0
37160,0.691895,-0.593262,0.25293,0
37180,0.681152,-0.593262,0.250977,0
37200,0.67627,-0.603516,0.236328,0
37220,0.686035,-0.603027,0.240723,0
37240,0.684082,-0.611328,0.246582,0
37260,0.687988,-0.60791,0.243652,0
37280,0.702148,-0.608887,0.234863,0
37300,0.70459,-0.618164,0.229004,0
37320,0.697754,-0.607422,0.241211,0
37340,0.70459,-0.604492,0.238281,0
37360,0.71582,-0.605957,0.220703,0
37380,0.716309,-0.596191,0.226074,0
37400,0.728516,-0.584473,0.21582,0
37420,0.71875,-0.589844,0.208984,0
37440,0.714844,-0.601074,0.208496,0
37460,0.713867,-0.604004,0.213379,0
37480,0.72998,-0.587402,0.210449,0
37500,0.740723,-0.600098,0.19873,0
37520,0.738281,-0.583496,0.193359,0
37540,0.734375,-0.586426,0.190918,0
37560,0.742676,-0.584473,0.192383,0
37580,0.739746,-0.586426,0.189941,0
37600,0.723145,-0.594238,0.175293,0
37620,0.731934,-0.591309,0.191406,0
37630,0.742676,-0.586914,0.178711,0
37650,0.728027,-0.574219,0.171875,0
37670,0.707031,-0.574707,0.172363,0
37690,0.720215,-0.571777,0.170898,0
37710,0.746582,-0.585938,0.176758,0
37730,0.756836,-0.575195,0.171387,0
37750,0.725586,-0.570312,0.172852,0
37770,0.748535,-0.57666,0.179688,0
37790,0.780762,-0.572266,0.162598,0
37810,0.759277,-0.543457,0.162598,0
37830,0.763184,-0.560059,0.175293,0
37850,0.808105,-0.544434,0.17334,0
37870,0.82666,-0.549316,0.178711,0
37890,0.80127,-0.541016,0.173828,0
37910,0.76123,-0.537109,0.168457,0
37930,0.780273,-0.538086,0.178711,0
37950,0.812012,-0.51416,0.181152,0
37970,0.80957,-0.505859,0.154297,0
37990,0.793457,-0.496582,0.144531,0
38010,0.804688,-0.502441,0.148926,0
38030,0.818359,-0.50293,0.152832,0
38050,0.782715,-0.516113,0.132324,0
38070,0.773438,-0.507324,0.143555,0
38090,0.803711,-0.493652,0.143066,0
38110,0.811035,-0.50293,0.126465,0
38130,0.799316,-0.51709,0.118164,0
38150,0.791992,-0.502441,0.128906,0
38170,0.806152,-0.505371,0.134277,0
38190,0.825684,-0.501465,0.121094,0
38210,0.817871,-0.505371,0.116211,0
38230,0.820312,-0.49707,0.117188,0
38250,0.817871,-0.5,0.120117,0
38270,0.828125,-0.495605,0.130859,0
38290,0.837891,-0.492676,0.11084,0
38310,0.850098,-0.483398,0.111328,0
38330,0.825684,-0.474609,0.103027,0
38350,0.8125,-0.474609,0.106934,0
38370,0.82373,-0.461426,0.10791,0
38390,0.842773,-0.464355,0.0976562,0
38410,0.845703,-0.456543,0.0878906,0
38430,0.815918,-0.444824,0.0942383,0
38450,0.821289,-0.438477,0.0932617,0
38470,0.839844,-0.433594,0.0908203,0
38490,0.848633,-0.422852,0.0854492,0
38510,0.841309,-0.409668,0.0791016,0
38530,0.844238,-0.397949,0.0859375,0
38550,0.861328,-0.407715,0.0800781,0
38570,0.871094,-0.398926,0.0849609,0
38590,0.845215,-0.395996,0.0893555,0
38610,0.837891,-0.382812,0.0854492,0
38630,0.844238,-0.393066,0.0874023,0
38650,0.886719,-0.388184,0.0957031,0
38670,0.881836,-0.379395,0.101562,0
38690,0.878418,-0.366211,0.0981445,0
38710,0.885742,-0.366211,0.0966797,0
38730,0.890625,-0.374023,0.0898438,0
38750,0.897461,-0.363281,0.108398,0
38770,0.878418,-0.359863,0.101562,0
38790,0.890137,-0.361328,0.108398,0
38810,0.905762,-0.350586,0.117188,0
38830,0.929199,-0.34375,0.105469,2001
38850,0.921875,-0.346191,0.102539,0
38870,0.896973,-0.334961,0.115234,0
38890,0.910645,-0.337402,0.120605,0
38910,0.930664,-0.336914,0.116699,0
38930,0.926758,-0.325195,0.108398,0
38950,0.907227,-0.305176,0.0961914,0
38970,0.903809,-0.30957,0.0927734,0
38990,0.912109,-0.306641,0.0932617,0
39010,0.882812,-0.313965,0.0917969,0
39030,0.874512,-0.312988,0.0810547,0
39050,0.880859,-0.307617,0.0771484,0
39070,0.882812,-0.304688,0.0844727,0
39090,0.900391,-0.313477,0.0776367,0
39110,0.887207,-0.321777,0.0708008,0
39130,0.882324,-0.320801,0.0766602,0
39150,0.876953,-0.329102,0.0761719,0
39170,0.868652,-0.317383,0.0844727,0
39190,0.847168,-0.334473,0.0761719,0
39210,0.835938,-0.337891,0.0439453,0
39230,0.81543,-0.350098,0.081543,0
39250,0.810547,-0.361816,0.0996094,0
39270,0.831055,-0.382812,0.0864258,0
39290,0.828125,-0.375488,0.0708008,0
39310,0.82666,-0.359863,0.0893555,0
39330,0.843262,-0.341797,0.108887,0
39350,0.837891,-0.327148,0.119629,0
39370,0.79834,-0.316895,0.121582,0
39390,0.775879,-0.316406,0.117676,0
39410,0.76416,-0.325195,0.141113,0
39430,0.804688,-0.329102,0.170898,0
39450,0.786621,-0.320801,0.172852,0
39470,0.705566,-0.317871,0.186035,0
39490,0.705566,-0.316895,0.20166,0
39510,0.728027,-0.30957,0.245117,0
39530,0.702637,-0.295898,0.255371,0
39550,0.692871,-0.305176,0.266113,0
39570,0.723633,-0.333496,0.291504,0
39580,0.750977,-0.318848,0.342773,0
39610,0.746582,-0.314941,0.375488,0
39620,0.763184,-0.37207,0.360352,0
39640,0.837891,-0.408691,0.381348,0
39660,0.808105,-0.366699,0.444336,0
39680,0.753418,-0.385254,0.468262,0
39700,0.812012,-0.475098,0.44043,0
39720,0.883789,-0.542969,0.486816,0
39740,0.802734,-0.512207,0.53125,0
39760,0.705078,-0.477051,0.568359,0
39780,0.729004,-0.498047,0.583496,0
39800,0.771973,-0.557129,0.605469,0
39820,0.75,-0.587891,0.635254,0
39840,0.705078,-0.588379,0.636719,0
39860,0.677246,-0.582031,0.646973,0
39880,0.622559,-0.596191,0.647949,0
39900,0.600098,-0.591797,0.646484,0
39920,0.552246,-0.59375,0.622559,0
39940,0.518555,-0.580566,0.632324,0
39960,0.456055,-0.561035,0.646973,0
39980,0.436035,-0.571777,0.657227,0
40000,0.442383,-0.592773,0.623535,0
40020,0.438477,-0.589844,0.613281,0
40040,0.402344,-0.563477,0.61377,0
40060,0.355957,-0.59082,0.618164,0
40080,0.360352,-0.584961,0.632324,0
40100,0.379883,-0.601074,0.616699,0
40120,0.383301,-0.602539,0.603516,0
40140,0.332031,-0.599609,0.626465,0
40160,0.30127,-0.602051,0.628906,0
40180,0.325684,-0.633789,0.625,0
40200,0.34375,-0.643066,0.625,0
40220,0.297363,-0.62793,0.621582,0
40240,0.250488,-0.624023,0.61084,0
40260,0.270996,-0.618652,0.638184,0
40280,0.32373,-0.616699,0.633789,0
40300,0.325684,-0.619629,0.616699,0
40320,0.324707,-0.614258,0.623047,0
40340,0.342773,-0.604004,0.639648,0
40360,0.324707,-0.612305,0.631348,0
40380,0.281738,-0.616699,0.619141,0
40400,0.279297,-0.618652,0.61084,0
40420,0.333008,-0.60791,0.613281,0
40440,0.358398,-0.615234,0.601562,0
40460,0.343262,-0.609863,0.623047,0
40480,0.323242,-0.594727,0.624023,0
40500,0.307617,-0.589355,0.620117,0
40520,0.328613,-0.607422,0.610352,0
40540,0.369141,-0.611328,0.608398,0
40560,0.360352,-0.600098,0.609863,0
40580,0.344727,-0.591309,0.613281,0
40600,0.355957,-0.616211,0.618652,0
40620,0.371582,-0.603516,0.606934,0
40640,0.352051,-0.588379,0.622559,0
40660,0.35498,-0.598633,0.602539,0
40680,0.379883,-0.618652,0.61084,0
40700,0.372559,-0.617676,0.610352,0
40720,0.334473,-0.609863,0.616211,0
40740,0.32373,-0.605957,0.607422,0
40760,0.347168,-0.611328,0.606934,0
40780,0.349609,-0.594238,0.619141,0
40800,0.35791,-0.588379,0.617676,0
40820,0.359863,-0.604492,0.613281,0
40840,0.367188,-0.600098,0.61377,0
40860,0.367188,-0.590332,0.617676,0
40880,0.365723,-0.59082,0.61084,0
40900,0.373047,-0.59375,0.60791,0
40920,0.370117,-0.592285,0.612793,0
40940,0.361328,-0.605469,0.605957,0
40960,0.374023,-0.595703,0.617676,0
40980,0.385254,-0.59668,0.616211,0
41000,0.37207,-0.586914,0.60498,0
41020,0.357422,-0.594727,0.606934,0
41040,0.371582,-0.598145,0.621582,0
41060,0.380859,-0.588379,0.618652,0
41080,0.377441,-0.59668,0.612305,0
41100,0.385254,-0.601562,0.604492,0
41120,0.416504,-0.598633,0.612305,0
41140,0.4375,-0.58252,0.61084,0
41160,0.416504,-0.584473,0.601562,0
41180,0.395508,-0.581543,0.609863,0
41200,0.42041,-0.583984,0.605469,0
41220,0.450684,-0.581543,0.598145,0
41240,0.4375,-0.575684,0.605469,0
41260,0.395996,-0.56543,0.611816,0
41280,0.414062,-0.571289,0.619629,0
41300,0.436035,-0.564941,0.597656,0
41320,0.445312,-0.580078,0.578125,0
41340,0.494629,-0.558105,0.594238,0
41360,0.503906,-0.554199,0.606445,0
41380,0.499512,-0.564941,0.596191,0
41400,0.51416,-0.576172,0.594238,0
41420,0.502441,-0.57666,0.592285,0
41440,0.493164,-0.583496,0.591797,0
41460,0.474121,-0.584961,0.599121,0
41480,0.473145,-0.599609,0.600586,0
41500,0.499512,-0.594238,0.618652,0
41520,0.484375,-0.59082,0.606934,0
41540,0.462402,-0.605957,0.592773,0
41560,0.428711,-0.60791,0.587891,0
41580,0.376953,-0.625,0.59082,0
41600,0.351074,-0.619629,0.592773,0
41620,0.352539,-0.625977,0.591309,0
41640,0.369141,-0.607422,0.589355,0
41660,0.372559,-0.588867,0.566895,0
41680,0.332031,-0.567383,0.578613,0
41700,0.310059,-0.578125,0.579102,0
41720,0.332031,-0.608887,0.561523,0
41740,0.366699,-0.634766,0.566895,0
41760,0.353027,-0.632812,0.57959,0
41780,0.353027,-0.628418,0.578613,0
41800,0.377441,-0.618652,0.591797,0
41820,0.371094,-0.619141,0.58252,0
41840,0.342773,-0.64209,0.578125,0
41860,0.342285,-0.644531,0.57959,0
41880,0.347656,-0.650391,0.580566,0
41900,0.347168,-0.64502,0.56543,0
41920,0.36084,-0.632324,0.56543,0
41940,0.351074,-0.633789,0.571289,0
41960,0.338379,-0.63623,0.568359,0
41980,0.331543,-0.643066,0.577637,0
42000,0.362793,-0.643555,0.565918,0
42020,0.397461,-0.626953,0.564453,0
42040,0.38623,-0.618652,0.573242,0
42060,0.382812,-0.616211,0.5625,0
42080,0.385254,-0.638672,0.563477,0
42100,0.37207,-0.65918,0.587891,0
42120,0.365723,-0.669434,0.574219,0
42140,0.356445,-0.65918,0.553711,0
42160,0.333496,-0.650391,0.567871,0
42180,0.369141,-0.638672,0.564941,0
42200,0.37793,-0.62207,0.558594,0
42220,0.357422,-0.630859,0.560547,0
42240,0.356934,-0.629883,0.574707,0
42260,0.374512,-0.634277,0.58252,0
42280,0.373535,-0.638184,0.562012,0
42300,0.369141,-0.646973,0.576172,0
42320,0.380859,-0.631836,0.575684,0
42340,0.395996,-0.625,0.574219,0
42360,0.386719,-0.630371,0.575195,0
42380,0.381836,-0.63623,0.562988,0
42400,0.395508,-0.633301,0.578613,0
42420,0.40332,-0.634766,0.581055,0
42440,0.42334,-0.635254,0.574707,0
42460,0.428223,-0.645996,0.567871,0
42480,0.399902,-0.635254,0.568848,0
42500,0.404297,-0.626953,0.566895,0
42520,0.426758,-0.633301,0.572266,0
42540,0.433594,-0.644043,0.568359,0
42560,0.411133,-0.626465,0.570312,0
42580,0.411621,-0.630859,0.568359,0
42600,0.404297,-0.631836,0.563965,0
42620,0.39209,-0.62793,0.568848,0
42640,0.384277,-0.616699,0.561035,0
42660,0.404297,-0.619629,0.554199,0
42680,0.436523,-0.606445,0.563477,0
42700,0.450684,-0.60498,0.561523,0
42720,0.449219,-0.612305,0.563477,0
42740,0.463379,-0.62207,0.55957,0
42760,0.476562,-0.618164,0.557617,0
42780,0.481934,-0.643555,0.553223,0
42800,0.505371,-0.647461,0.555664,0
42820,0.515137,-0.669434,0.573242,0
42840,0.496094,-0.671387,0.59668,0
42860,0.47998,-0.687012,0.568359,0
42880,0.486328,-0.686035,0.581055,0
42900,0.505371,-0.679688,0.577148,0
42920,0.485352,-0.683105,0.549805,0
42940,0.466309,-0.675293,0.541016,0
42960,0.427246,-0.678223,0.553711,0
42980,0.374512,-0.672852,0.520996,0
43000,0.367676,-0.675781,0.503906,0
43020,0.382812,-0.664062,0.499023,0
43030,0.36377,-0.634766,0.499023,2000
43050,0.361328,-0.633789,0.467773,0
43070,0.351074,-0.661621,0.460449,0
43090,0.351074,-0.680176,0.470703,0
43110,0.355469,-0.687012,0.460938,0
43130,0.375488,-0.692383,0.450684,0
43150,0.36377,-0.680176,0.474609,0
43170,0.346191,-0.687988,0.470215,0
43190,0.344238,-0.727539,0.453613,0
43210,0.361328,-0.733887,0.443359,0
43230,0.35498,-0.736816,0.435059,0
43250,0.320801,-0.72998,0.429688,0
43270,0.349609,-0.724609,0.438477,0
43290,0.385742,-0.735352,0.4375,0
43310,0.366699,-0.73291,0.437988,0
43330,0.35498,-0.735352,0.429688,0
43350,0.370605,-0.746582,0.432129,0
43370,0.377441,-0.741211,0.453613,0
43390,0.354004,-0.741211,0.429688,0
43410,0.342285,-0.75293,0.427734,0
43430,0.362793,-0.753906,0.452637,0
43450,0.382812,-0.739258,0.456055,0
43470,0.374023,-0.730469,0.455566,0
43500,0.355957,-0.749512,0.461914,0
43520,0.376465,-0.755859,0.464355,0
43540,0.378418,-0.747559,0.470215,0
43560,0.35791,-0.746094,0.470215,0
43580,0.365234,-0.75293,0.475586,0
43600,0.38916,-0.755371,0.477539,0
43620,0.385742,-0.726562,0.472168,0
43640,0.351074,-0.698242,0.486328,0
43660,0.365234,-0.708984,0.482422,0
43680,0.379883,-0.723145,0.507324,0
43700,0.371094,-0.73584,0.497559,0
43720,0.362305,-0.729004,0.494629,0
43740,0.373047,-0.729492,0.500488,0
43760,0.399902,-0.703613,0.51123,0
43780,0.381836,-0.695312,0.505859,0
43800,0.373535,-0.692383,0.502441,0
43820,0.396973,-0.710449,0.503906,0
43840,0.405762,-0.699219,0.505371,0
43860,0.399902,-0.696289,0.504883,0
43880,0.41748,-0.687012,0.513672,0
43900,0.427246,-0.693359,0.523438,0
43920,0.389648,-0.693359,0.524414,0
43940,0.366211,-0.680664,0.515625,0
43960,0.380371,-0.671875,0.51416,0
43980,0.409668,-0.668945,0.508789,0
44000,0.429199,-0.666992,0.517578,0
44020,0.445312,-0.658691,0.51416,0
44040,0.443848,-0.655273,0.521973,0
44060,0.449707,-0.645996,0.517578,0
44080,0.450195,-0.648926,0.52832,0
44100,0.456055,-0.634277,0.517578,0
44120,0.4375,-0.619629,0.539551,0
44140,0.42334,-0.627441,0.541992,0
44160,0.437012,-0.644043,0.537109,0
44180,0.443848,-0.637695,0.55957,0
44200,0.435547,-0.664551,0.55957,0
44220,0.404785,-0.64209,0.558105,0
44240,0.354492,-0.624023,0.5625,0
44260,0.325684,-0.601562,0.583496,0
44280,0.345703,-0.61084,0.601562,0
44300,0.36084,-0.616211,0.590332,0
44320,0.337402,-0.619141,0.577148,0
44340,0.319336,-0.633301,0.598633,0
44360,0.338867,-0.628418,0.610352,0
44380,0.345703,-0.619141,0.617676,0
44400,0.349609,-0.606445,0.605957,0
44420,0.356445,-0.618164,0.612305,0
44440,0.346191,-0.611816,0.620117,0
44460,0.328125,-0.615234,0.618164,0
44480,0.34375,-0.615234,0.620117,0
44500,0.384277,-0.616699,0.619629,0
44520,0.406738,-0.605469,0.624023,0
44540,0.401855,-0.59668,0.631348,0
44560,0.407715,-0.584473,0.631348,0
44580,0.400391,-0.584473,0.632324,0
44600,0.383301,-0.59375,0.622559,0
44620,0.380371,-0.599609,0.625977,0
44640,0.382324,-0.600586,0.618164,0
44660,0.374023,-0.602051,0.614746,0
44680,0.375,-0.591309,0.619141,0
44700,0.384766,-0.588867,0.605469,0
44720,0.334961,-0.594727,0.609375,0
44740,0.293945,-0.609863,0.597168,0
44760,0.310059,-0.632812,0.585449,0
44780,0.331543,-0.640137,0.580078,0
44800,0.345703,-0.638672,0.577637,0
44820,0.343262,-0.619141,0.589355,0
44840,0.340332,-0.612793,0.598145,0
44860,0.369141,-0.612305,0.584961,0
44880,0.401367,-0.627441,0.581055,0
44900,0.413086,-0.61377,0.588867,0
44920,0.419434,-0.613281,0.588379,0
44940,0.40625,-0.599121,0.580566,0
44960,0.408691,-0.618652,0.564453,0
44980,0.419922,-0.618652,0.57666,0
44990,0.428223,-0.618164,0.581543,0
45010,0.43457,-0.60498,0.57959,0
45030,0.423828,-0.600586,0.574707,0
45050,0.411133,-0.608887,0.569824,0
45070,0.427246,-0.615234,0.575684,0
45090,0.449707,-0.610352,0.572754,0
45110,0.441406,-0.603516,0.57959,0
45130,0.427246,-0.600586,0.581055,0
45150,0.423828,-0.599121,0.578613,0
45170,0.42041,-0.589844,0.58252,0
45190,0.424316,-0.592285,0.569336,0
45210,0.431641,-0.604004,0.569824,0
45230,0.43457,-0.600098,0.583008,0
45250,0.423828,-0.593262,0.587402,0
45270,0.42627,-0.585449,0.572754,0
45290,0.426758,-0.587891,0.572266,0
45310,0.43457,-0.587402,0.577148,0
45330,0.441406,-0.593262,0.597168,0
45350,0.443848,-0.590332,0.584961,0
45370,0.436523,-0.588867,0.588867,0
45390,0.447266,-0.586426,0.579102,0
45410,0.455566,-0.583984,0.587891,0
45430,0.445801,-0.574707,0.584473,0
45450,0.439453,-0.57959,0.586426,0
45470,0.434082,-0.581543,0.58252,0
45490,0.434082,-0.578613,0.583984,0
45510,0.43457,-0.57373,0.584473,0
45530,0.437012,-0.575195,0.581055,0
45550,0.426758,-0.579102,0.583984,0
45570,0.430664,-0.583496,0.577637,0
45590,0.424316,-0.589844,0.588867,0
45610,0.430176,-0.578125,0.577148,0
45630,0.440918,-0.57959,0.584961,0
45650,0.432617,-0.568848,0.591797,0
45670,0.42334,-0.569824,0.599121,0
45690,0.427246,-0.570312,0.589355,0
45710,0.443848,-0.578125,0.57666,0
45730,0.444824,-0.577637,0.577637,0
45750,0.433105,-0.579102,0.583984,0
45770,0.452148,-0.565918,0.597168,0
45790,0.460938,-0.555664,0.589355,0
45810,0.473633,-0.557129,0.578613,0
45830,0.479004,-0.5625,0.578125,0
45850,0.484375,-0.540527,0.584961,0
45870,0.480957,-0.554688,0.579102,0
45890,0.5,-0.567383,0.560547,0
45910,0.47998,-0.571289,0.564453,0
45930,0.489258,-0.56543,0.573242,0
45950,0.485352,-0.545898,0.584473,0
45970,0.478027,-0.540039,0.580566,0
45990,0.482422,-0.542969,0.56543,0
46010,0.487305,-0.54834,0.568848,0
46030,0.473633,-0.55127,0.580566,0
46050,0.469238,-0.553223,0.58252,0
46070,0.467285,-0.546387,0.572754,0
46090,0.483887,-0.54541,0.577148,0
46110,0.480957,-0.529297,0.583984,0
46130,0.476562,-0.547852,0.57373,0
46150,0.491699,-0.547363,0.58252,0
46170,0.498535,-0.539062,0.588379,0
46190,0.500977,-0.541504,0.570801,0
46210,0.489746,-0.537598,0.577637,0
46230,0.481445,-0.54248,0.57959,0
46250,0.494141,-0.541504,0.585449,0
46270,0.501465,-0.53125,0.587402,0
46290,0.49707,-0.520996,0.583984,0
46310,0.503418,-0.521973,0.578125,0
46330,0.49707,-0.529785,0.582031,0
46350,0.508789,-0.535156,0.57666,0
46370,0.504395,-0.526367,0.578613,0
46390,0.507324,-0.519043,0.584473,0
46410,0.502441,-0.512695,0.574707,0
46430,0.518066,-0.525391,0.569336,0
46450,0.515137,-0.522949,0.565918,0
46470,0.512207,-0.512695,0.574219,0
46490,0.521484,-0.508789,0.57959,0
46510,0.522461,-0.514648,0.566406,0
46530,0.538086,-0.511719,0.566895,0
46550,0.543945,-0.515137,0.564453,0
46570,0.514648,-0.493164,0.570801,0
46590,0.521484,-0.498535,0.573242,0
46610,0.538574,-0.509766,0.567871,0
46630,0.54834,-0.510742,0.5625,0
46650,0.529785,-0.487305,0.564941,0
46670,0.527344,-0.496582,0.563477,0
46690,0.538086,-0.497559,0.569824,0
46710,0.537598,-0.500488,0.570312,0
46730,0.539062,-0.497559,0.568359,0
46750,0.532715,-0.492676,0.55957,0
46770,0.534668,-0.499512,0.568848,0
46790,0.536621,-0.495117,0.573242,0
46810,0.529785,-0.494629,0.578613,0
46830,0.533691,-0.48877,0.570312,0
46850,0.549805,-0.490234,0.575684,0
46870,0.550293,-0.483887,0.570801,0
46890,0.550781,-0.486816,0.581055,0
46910,0.553223,-0.47998,0.571289,0
46930,0.543945,-0.48584,0.569824,0
46950,0.556152,-0.484375,0.575684,0
46970,0.551758,-0.474609,0.580566,0
46990,0.556641,-0.470703,0.581543,0
47010,0.557617,-0.479004,0.573242,0
47030,0.561035,-0.468262,0.577637,0
47050,0.578125,-0.476562,0.577637,0
47070,0.563965,-0.470215,0.572266,0
47090,0.561523,-0.470215,0.574219,0
47110,0.580566,-0.458496,0.57959,0
47130,0.57373,-0.455078,0.583008,0
47150,0.575195,-0.453613,0.57666,0
47170,0.574219,-0.45459,0.580566,0
47190,0.563477,-0.450195,0.577148,0
47210,0.572754,-0.450684,0.581543,0
47230,0.570312,-0.448242,0.572754,0
47250,0.577637,-0.439453,0.569824,0
47270,0.581055,-0.435547,0.575684,0
47290,0.571777,-0.421875,0.575684,0
47310,0.577148,-0.427734,0.582031,0
47330,0.58252,-0.425781,0.575195,0
47350,0.572266,-0.411621,0.574219,0
47370,0.585449,-0.404297,0.584961,0
47390,0.583984,-0.410156,0.581055,0
47410,0.59668,-0.421875,0.571289,0
47430,0.587891,-0.42041,0.582031,0
47450,0.592285,-0.414551,0.57959,0
47470,0.586426,-0.407227,0.580566,0
47490,0.59668,-0.415039,0.568359,0
47510,0.591797,-0.418457,0.578125,0
47530,0.575195,-0.406738,0.583984,0
47550,0.578125,-0.399414,0.578613,0
47570,0.587402,-0.40625,0.577148,0
47590,0.589844,-0.405273,0.581543,0
47610,0.582031,-0.415039,0.587891,0
47630,0.588867,-0.411621,0.595215,0
47650,0.576172,-0.418457,0.591797,0
47670,0.59082,-0.413086,0.59375,0
47690,0.592773,-0.408691,0.595703,0
47710,0.584473,-0.39209,0.599121,0
47730,0.587891,-0.398438,0.600586,0
47750,0.595703,-0.405273,0.599609,0
47770,0.589844,-0.405762,0.594238,0
47790,0.586914,-0.394043,0.604492,0
47810,0.589844,-0.396484,0.600098,0
47830,0.597656,-0.397461,0.593262,0
47850,0.599609,-0.386719,0.591309,0
47870,0.594727,-0.380859,0.598145,0
47890,0.587891,-0.376465,0.605469,0
47910,0.592285,-0.381348,0.601562,0
47930,0.592773,-0.381348,0.599609,0
47950,0.596191,-0.371094,0.601562,0
47970,0.591309,-0.362305,0.605469,0
47980,0.594238,-0.367188,0.603027,0
48000,0.59375,-0.374023,0.594727,0
48020,0.601074,-0.365723,0.601074,0
48040,0.604004,-0.358887,0.60498,0
48060,0.597168,-0.365234,0.598633,0
48070,0.600098,-0.366211,0.600098,0
48090,0.596191,-0.362305,0.614258,0
48110,0.593262,-0.352051,0.602539,0
48130,0.605469,-0.361328,0.599121,0
48150,0.606445,-0.348633,0.602539,0
48170,0.59668,-0.346191,0.606934,0
48190,0.598145,-0.348633,0.613281,0
48210,0.58252,-0.358887,0.614258,0
48230,0.598145,-0.352539,0.609863,0
48250,0.600586,-0.348145,0.614258,0
48270,0.609863,-0.349121,0.611328,0
48290,0.602539,-0.348145,0.60791,0
48310,0.605469,-0.339844,0.615723,0
48330,0.610352,-0.342285,0.608398,0
48350,0.611328,-0.345215,0.606445,0
48370,0.61377,-0.343262,0.604492,0
48380,0.612305,-0.336914,0.609375,0
48400,0.609375,-0.323242,0.61084,0
48420,0.60791,-0.333984,0.605469,0
48440,0.619141,-0.325195,0.606445,0
48460,0.598633,-0.324707,0.605469,0
48480,0.59375,-0.314941,0.607422,0
48500,0.611816,-0.320801,0.600586,0
48520,0.614746,-0.311035,0.612305,0
48540,0.599121,-0.308594,0.622559,0
48560,0.602539,-0.308594,0.615723,0
48580,0.61377,-0.314941,0.616211,0
48600,0.616211,-0.304199,0.624512,0
48620,0.609863,-0.312988,0.617188,0
48640,0.603516,-0.318848,0.614258,0
48660,0.598145,-0.313477,0.634277,0
48680,0.60498,-0.313477,0.625977,0
48700,0.619629,-0.312012,0.608398,0
48720,0.597168,-0.305176,0.614258,0
48740,0.590332,-0.305176,0.623535,0
48760,0.607422,-0.308594,0.625488,0
48780,0.610352,-0.304688,0.624023,0
48800,0.609375,-0.306152,0.634766,0
48820,0.614746,-0.300781,0.620605,0
48840,0.60498,-0.299316,0.628418,0
48860,0.603516,-0.29248,0.629395,0
48880,0.61084,-0.297363,0.626953,0
48900,0.620605,-0.307129,0.620117,0
48920,0.611328,-0.300781,0.62207,0
48940,0.59668,-0.280762,0.639648,0
48960,0.589355,-0.289551,0.625,0
48980,0.612793,-0.29541,0.623047,0
49000,0.608887,-0.291504,0.628418,0
49020,0.608887,-0.278809,0.639648,0
49040,0.566406,-0.276367,0.624023,0
49060,0.587891,-0.285645,0.618164,0
49080,0.598633,-0.28418,0.625,0
49100,0.59668,-0.274414,0.633301,0
49120,0.605957,-0.269531,0.637207,0
49140,0.623047,-0.280273,0.634766,0
49160,0.606445,-0.276367,0.640625,0
49180,0.591797,-0.279785,0.629395,0
49200,0.603516,-0.275391,0.632812,0
49220,0.614258,-0.272461,0.648438,0
49240,0.597656,-0.275879,0.643066,0
49260,0.583496,-0.282227,0.637695,0
49280,0.586914,-0.273438,0.648926,0
49300,0.601074,-0.284668,0.658691,0
49320,0.589844,-0.277344,0.649902,0
49340,0.577637,-0.273926,0.652832,0
49360,0.586914,-0.270508,0.655762,0
49380,0.591797,-0.289551,0.650879,0
49400,0.603027,-0.273438,0.647949,0
49420,0.593262,-0.252441,0.662598,0
49440,0.591309,-0.257324,0.660156,0
49460,0.555176,-0.276367,0.650391,0
49480,0.577148,-0.274414,0.657227,0
49500,0.575195,-0.270508,0.654785,0
49520,0.584961,-0.263672,0.658691,0
49540,0.593262,-0.272949,0.657715,0
49560,0.578125,-0.279297,0.652832,0
49580,0.578125,-0.269043,0.657715,0
49600,0.582031,-0.271484,0.660156,0
49620,0.596191,-0.279785,0.657227,0
49640,0.605957,-0.27832,0.65625,0
49660,0.562988,-0.261719,0.65625,0
49680,0.568848,-0.263672,0.669434,0
49700,0.586914,-0.257812,0.668945,0
49720,0.595215,-0.272461,0.661133,0
49740,0.580078,-0.262695,0.664062,0
49760,0.57373,-0.271973,0.664062,0
49780,0.582031,-0.275879,0.666504,0
49800,0.598145,-0.287598,0.658203,0
49820,0.59668,-0.275879,0.663086,0
49840,0.568359,-0.276367,0.661621,0
49860,0.562012,-0.278809,0.659668,0
49880,0.577148,-0.29248,0.655762,0
49900,0.595215,-0.286133,0.655273,0
49920,0.587891,-0.270508,0.652344,0
49940,0.567871,-0.271973,0.654785,0
49960,0.559082,-0.273438,0.654297,0
49980,0.563477,-0.277344,0.655273,0
50000,0.584961,-0.285645,0.646973,0
50020,0.575684,-0.27832,0.649902,0
50040,0.541992,-0.271973,0.648438,0
50060,0.547852,-0.291504,0.652832,0
50080,0.574219,-0.29834,0.650879,0
50100,0.585449,-0.302246,0.658691,0
50120,0.562988,-0.280273,0.654785,0
50140,0.54834,-0.285156,0.657715,0
50160,0.551758,-0.29834,0.65918,0
50180,0.558105,-0.311035,0.662109,0
50200,0.57666,-0.294434,0.668457,0
50220,0.573242,-0.292969,0.654785,0
50240,0.544922,-0.293945,0.650879,0
50260,0.538086,-0.313965,0.650391,0
50280,0.567383,-0.311523,0.667969,0
50300,0.566895,-0.299805,0.667969,0
50320,0.549805,-0.30127,0.663086,0
50340,0.554688,-0.3125,0.666016,0
50360,0.562012,-0.314453,0.669434,0
50370,0.557617,-0.317383,0.668945,0
50390,0.546387,-0.316895,0.651367,0
50410,0.550293,-0.30957,0.666016,0
50430,0.54541,-0.307617,0.661621,0
50450,0.543945,-0.304199,0.655762,0
50470,0.547363,-0.310059,0.666504,0
50490,0.531738,-0.311035,0.665039,0
50510,0.530273,-0.318359,0.662598,0
50530,0.536621,-0.322754,0.656738,0
50550,0.540527,-0.320312,0.65918,0
50570,0.554688,-0.320801,0.662598,0
50590,0.536133,-0.313965,0.685059,0
50610,0.525879,-0.316406,0.678223,0
50630,0.542969,-0.335449,0.67334,0
50650,0.566895,-0.338379,0.672363,0
50670,0.541016,-0.331543,0.67627,0
50690,0.518555,-0.328125,0.679688,0
50710,0.530762,-0.335449,0.689453,0
50730,0.556641,-0.345215,0.679688,0
50750,0.551758,-0.325684,0.679199,0
50770,0.518555,-0.320312,0.687988,0
50790,0.520508,-0.327637,0.688477,0
50810,0.530762,-0.342285,0.673828,0
50830,0.546875,-0.331543,0.677734,0
50850,0.524414,-0.32373,0.674316,0
50870,0.512207,-0.325684,0.684082,0
50890,0.526367,-0.342285,0.68457,0
50910,0.539551,-0.340332,0.674805,0
50930,0.530762,-0.32959,0.670898,0
50950,0.510742,-0.322754,0.666016,0
50970,0.507324,-0.34082,0.659668,0
50990,0.529297,-0.341309,0.67041,0
51010,0.526855,-0.34082,0.67334,0
51030,0.530273,-0.330078,0.669434,0
51050,0.530273,-0.34375,0.662598,0
51070,0.520996,-0.347168,0.654785,0
51090,0.508789,-0.348633,0.669434,0
51110,0.525879,-0.352051,0.663574,0
51130,0.543945,-0.352051,0.666992,0
51150,0.530762,-0.345703,0.654785,0
51170,0.525879,-0.357422,0.664551,0
51190,0.536621,-0.352539,0.669434,0
51210,0.529785,-0.356934,0.673828,0
51230,0.538086,-0.362305,0.666504,0
51250,0.523926,-0.356934,0.659668,0
51270,0.503418,-0.364746,0.655762,0
51290,0.524414,-0.366699,0.671387,0
51310,0.531738,-0.373047,0.674316,0
51330,0.526855,-0.366211,0.663574,0
51350,0.509766,-0.376465,0.674805,0
51370,0.49707,-0.376953,0.665527,0
51390,0.492188,-0.38916,0.671387,0
51410,0.518066,-0.387695,0.675293,0
51430,0.527832,-0.375977,0.675781,0
51450,0.497559,-0.375,0.654785,0
51470,0.484863,-0.408691,0.659668,0
51490,0.523438,-0.393066,0.679688,0
51510,0.524414,-0.374512,0.670898,0
51530,0.506348,-0.366699,0.653809,0
51550,0.501465,-0.369629,0.655762,0
51570,0.509277,-0.396484,0.654297,0
51590,0.516602,-0.407715,0.660156,0
51610,0.508789,-0.40625,0.672852,0
51630,0.503418,-0.401367,0.655273,0
51650,0.515625,-0.397461,0.649414,0
51670,0.512207,-0.400391,0.644531,0
51690,0.505371,-0.395508,0.651855,0
51710,0.506836,-0.40918,0.652832,0
51730,0.492676,-0.416504,0.652344,0
51750,0.494141,-0.421387,0.648438,0
51770,0.507812,-0.407715,0.649414,0
51790,0.51123,-0.393555,0.65332,0
51810,0.482422,-0.407227,0.642578,0
51830,0.475586,-0.430664,0.645996,0
51850,0.505371,-0.436035,0.65625,0
51870,0.505371,-0.436523,0.642578,0
51890,0.484863,-0.447266,0.631348,0
51910,0.493164,-0.437012,0.644531,0
51930,0.5,-0.439941,0.641602,0
51950,0.486328,-0.439453,0.63916,0
51970,0.491211,-0.454102,0.635742,0
51990,0.505859,-0.434082,0.640137,0
52010,0.491699,-0.446289,0.636719,0
52030,0.480957,-0.474609,0.633301,0
52050,0.504395,-0.465332,0.652344,0
52070,0.510742,-0.457031,0.638184,0
52090,0.5,-0.44043,0.632812,0
52110,0.501953,-0.435547,0.643066,0
52130,0.516602,-0.445312,0.635742,0
52150,0.521484,-0.46582,0.624023,0
52170,0.510254,-0.473633,0.61084,0
52190,0.494629,-0.48291,0.615723,0
52210,0.487305,-0.454102,0.621582,0
52230,0.478027,-0.456543,0.61084,0
52250,0.496094,-0.455566,0.612793,0
52270,0.495605,-0.459961,0.61084,0
52290,0.490234,-0.478027,0.62207,0
52310,0.494141,-0.484863,0.619629,0
52330,0.497559,-0.480469,0.618164,0
52350,0.498047,-0.477539,0.605469,0
52370,0.48291,-0.472168,0.618652,0
52390,0.468262,-0.479492,0.618652,0
52410,0.48584,-0.493652,0.623047,0
52430,0.488281,-0.499023,0.617676,0
52450,0.462891,-0.503906,0.612305,0
52470,0.463379,-0.496582,0.630859,0
52490,0.474609,-0.50293,0.625488,0
52510,0.470703,-0.499023,0.616211,0
52530,0.46875,-0.494629,0.617188,0
52550,0.48877,-0.484375,0.630859,0
52570,0.487305,-0.495117,0.628906,0
52590,0.480957,-0.505371,0.632324,0
52610,0.487305,-0.509766,0.629395,0
52630,0.490723,-0.505371,0.619141,0
52650,0.486328,-0.503906,0.614258,0
52670,0.47998,-0.496582,0.62207,0
52690,0.492676,-0.510254,0.622559,0
52710,0.48877,-0.507812,0.620117,0
52730,0.461426,-0.505371,0.608887,0
52750,0.467285,-0.509277,0.610352,0
52770,0.493652,-0.513672,0.612793,0
52790,0.495605,-0.512695,0.608887,0
52810,0.471191,-0.508301,0.59668,0
52830,0.452637,-0.509766,0.601562,0
52850,0.474609,-0.518066,0.604004,0
52870,0.49707,-0.518555,0.593262,0
52890,0.480469,-0.517578,0.592285,0
52910,0.472168,-0.52002,0.595215,0
52930,0.47998,-0.519043,0.589844,0
52950,0.477539,-0.530762,0.583496,0
52970,0.491211,-0.529297,0.600586,0
52990,0.480469,-0.525879,0.592773,0
53010,0.460938,-0.536621,0.583496,0
53030,0.480469,-0.538086,0.590332,0
53050,0.487305,-0.534668,0.584961,0
53070,0.477539,-0.54248,0.585449,0
53090,0.489258,-0.548828,0.581543,0
53110,0.491699,-0.550781,0.581543,0
53130,0.472656,-0.546875,0.585938,0
53150,0.476562,-0.561523,0.581055,0
53170,0.500488,-0.556641,0.589355,0
53190,0.436523,-0.557617,0.5625,0
53200,0.453613,-0.562988,0.578613,0
53220,0.494629,-0.559082,0.574219,0
53240,0.480957,-0.558105,0.574707,0
53260,0.459961,-0.561035,0.567871,0
53280,0.436523,-0.561523,0.561035,0
53300,0.446777,-0.57373,0.568359,0
53320,0.48584,-0.574219,0.570801,0
53340,0.482422,-0.569824,0.561035,0
53360,0.462891,-0.572266,0.550781,0
53380,0.490723,-0.570801,0.567871,0
53400,0.500977,-0.57373,0.55957,0
53420,0.464844,-0.578125,0.546387,0
53440,0.466309,-0.585938,0.546387,0
53460,0.491699,-0.579102,0.557129,0
53480,0.491211,-0.581055,0.54248,0
53500,0.481445,-0.582031,0.557129,0
53520,0.480469,-0.583496,0.547363,0
53540,0.480469,-0.582031,0.544434,0
53560,0.468262,-0.58252,0.54834,0
53580,0.466797,-0.587402,0.534668,0
53600,0.480469,-0.594238,0.546875,0
53620,0.494141,-0.594727,0.539551,0
53640,0.48291,-0.595215,0.537109,0
53660,0.462402,-0.590332,0.537598,0
53680,0.463867,-0.592285,0.531738,0
53700,0.466797,-0.588379,0.52832,0
53720,0.47168,-0.601562,0.524414,0
53730,0.490234,-0.602051,0.532715,0
53750,0.471191,-0.605957,0.533691,0
53770,0.462891,-0.615234,0.532715,0
53790,0.462891,-0.615234,0.522461,0
53810,0.463379,-0.621094,0.524414,0
53830,0.474121,-0.613281,0.524902,0
53850,0.480469,-0.613281,0.522949,0
53870,0.458008,-0.625977,0.518066,0
53890,0.466797,-0.637207,0.523926,0
53910,0.496582,-0.628906,0.52832,0
53930,0.487305,-0.623047,0.513672,0
53950,0.473633,-0.619629,0.513672,0
53970,0.489258,-0.614258,0.520508,0
53990,0.486328,-0.620117,0.51416,0
54010,0.446777,-0.644043,0.511719,0
54060,0.475586,-0.627441,0.503418,0
54080,0.492676,-0.630371,0.5,0
54100,0.497559,-0.632324,0.503418,0
54120,0.474609,-0.615234,0.503418,0
54140,0.478516,-0.624023,0.490234,0
54160,0.497559,-0.618652,0.495117,0
54180,0.45459,-0.631836,0.493164,0
54200,0.504883,-0.647949,0.47998,0
54220,0.506836,-0.624023,0.491699,0
54240,0.47168,-0.620605,0.497559,0
54260,0.495605,-0.626953,0.496094,0
54280,0.52002,-0.636719,0.487305,0
54300,0.483398,-0.63623,0.481934,0
54320,0.469238,-0.638184,0.48877,0
54340,0.504883,-0.638672,0.489746,0
54360,0.51123,-0.629395,0.473145,0
54380,0.484863,-0.621582,0.473145,0
54400,0.480957,-0.618652,0.476562,0
54420,0.487793,-0.630371,0.469727,0
54440,0.50293,-0.634766,0.475098,0
54460,0.520508,-0.633789,0.475586,0
54480,0.53125,-0.616211,0.489258,0
54500,0.533691,-0.636719,0.474609,0
54520,0.535156,-0.630371,0.472168,0
54540,0.524414,-0.64502,0.475586,0
54560,0.525879,-0.627441,0.493652,0
54580,0.527344,-0.618164,0.477051,0
54600,0.515625,-0.620605,0.459961,0
54620,0.517578,-0.621582,0.467773,0
54640,0.526855,-0.629883,0.470703,0
54660,0.530762,-0.630371,0.45752,0
54680,0.538574,-0.609863,0.46875,0
54700,0.533691,-0.598633,0.464844,0
54720,0.527832,-0.596191,0.451172,0
54740,0.52832,-0.602051,0.449707,0
54760,0.530273,-0.606934,0.464355,0
54780,0.539062,-0.598145,0.464355,0
54800,0.544434,-0.599609,0.452148,0
54820,0.555664,-0.599121,0.452148,0
54840,0.555176,-0.589844,0.452637,0
54860,0.54834,-0.598633,0.461914,0
54880,0.553711,-0.619141,0.450684,0
54900,0.57666,-0.630371,0.461914,0
54920,0.573242,-0.626465,0.464355,0
54940,0.558594,-0.605957,0.464844,0
54960,0.553711,-0.619141,0.453613,0
54980,0.57666,-0.611328,0.469238,0
55000,0.575684,-0.606445,0.461426,0
55020,0.560059,-0.617188,0.457031,0
55040,0.570801,-0.621094,0.450684,0
55060,0.575684,-0.599121,0.446289,0
55080,0.557129,-0.627441,0.458984,0
55100,0.565918,-0.631348,0.456055,0
55120,0.568359,-0.625,0.437012,0
55140,0.546387,-0.616699,0.43457,0
55160,0.541504,-0.620117,0.443848,0
55180,0.5625,-0.622559,0.436523,0
55200,0.560059,-0.61084,0.429199,0
55240,0.546875,-0.588867,0.428223,0
55260,0.557129,-0.598633,0.427734,0
55280,0.555664,-0.593262,0.430664,0
55300,0.553223,-0.595703,0.437988,0
55320,0.569824,-0.583496,0.445801,0
55340,0.585938,-0.590332,0.436523,0
55360,0.580078,-0.588867,0.42627,0
55380,0.570312,-0.584961,0.449219,0
55400,0.572754,-0.574219,0.440918,0
55420,0.587891,-0.59082,0.437012,0
55440,0.579102,-0.58252,0.438965,0
55460,0.571289,-0.566895,0.440918,0
55480,0.603516,-0.557129,0.457031,0
55500,0.646973,-0.54248,0.46582,0
55520,0.638184,-0.547363,0.45459,0
55540,0.61377,-0.558594,0.445801,0
55560,0.62793,-0.579102,0.438477,0
55580,0.640137,-0.578613,0.434082,0
55600,0.624023,-0.57373,0.433594,0
55620,0.618164,-0.558594,0.436035,0
55630,0.630371,-0.558594,0.446777,0
55650,0.630371,-0.553223,0.435547,0
55660,0.625977,-0.548828,0.430664,0
55680,0.614746,-0.54541,0.430664,0
55710,0.618652,-0.52832,0.434082,0
55730,0.619141,-0.537109,0.428711,0
55750,0.62207,-0.524414,0.429688,0
55770,0.608398,-0.516113,0.425293,0
55770,0.620117,-0.522949,0.432617,0
55790,0.643555,-0.541992,0.439453,0
55800,0.649414,-0.522461,0.4375,0
55840,0.683105,-0.52002,0.436523,0
55870,0.690918,-0.503418,0.439941,0
55900,0.680664,-0.487793,0.452148,0
55920,0.660156,-0.465332,0.437012,0
55950,0.669922,-0.478516,0.432617,0
55970,0.679688,-0.460449,0.437012,0
55990,0.672363,-0.461914,0.432617,0
56020,0.70166,-0.478027,0.424805,0
56040,0.717285,-0.464844,0.438965,0
56060,0.698242,-0.457031,0.444824,0
56080,0.668945,-0.452637,0.432617,0
56100,0.678223,-0.463867,0.435547,0
56110,0.693359,-0.45752,0.429688,0
56140,0.714355,-0.467285,0.433105,0
56160,0.693359,-0.459961,0.428223,0
56180,0.677734,-0.459961,0.439941,0
56200,0.683105,-0.460449,0.437012,0
56210,0.700195,-0.464355,0.433594,0
56230,0.696777,-0.458984,0.425781,0
56250,0.686523,-0.466309,0.42334,0
56270,0.678223,-0.460449,0.431641,0
56290,0.681641,-0.449219,0.432617,0
56310,0.694336,-0.437012,0.431152,0
56330,0.688965,-0.437012,0.436523,0
56350,0.709961,-0.43457,0.429688,0
56370,0.71582,-0.443848,0.439453,0
56390,0.709961,-0.443359,0.429199,0
56410,0.717285,-0.43457,0.442871,0
56430,0.699219,-0.418457,0.445312,0
56450,0.706055,-0.407715,0.445312,0
56470,0.726562,-0.416016,0.44043,0
56490,0.712891,-0.424316,0.435547,0
56510,0.691406,-0.425293,0.441895,0
56530,0.686523,-0.416016,0.452148,0
56550,0.718262,-0.413086,0.460449,0
56570,0.717773,-0.391113,0.459961,0
56590,0.714844,-0.399414,0.447754,0
56610,0.709961,-0.393066,0.444824,0
56630,0.72168,-0.385742,0.465332,0
56650,0.733398,-0.387207,0.458496,0
56670,0.749512,-0.379395,0.458496,0
56690,0.729492,-0.34082,0.460449,0
56710,0.716309,-0.354004,0.458496,0
56730,0.71582,-0.365234,0.470703,0
56750,0.713379,-0.380859,0.459961,0
56770,0.717285,-0.365723,0.455078,0
56790,0.72998,-0.362305,0.464355,0
56810,0.736328,-0.359375,0.455078,0
56830,0.747559,-0.36377,0.456055,0
56850,0.70752,-0.359863,0.442871,0
56870,0.708984,-0.358887,0.452637,0
56890,0.730469,-0.336426,0.470703,0
56910,0.738281,-0.325195,0.467285,0
56930,0.728027,-0.33252,0.457031,0
56950,0.719727,-0.358887,0.454102,0
56970,0.728027,-0.361816,0.465332,0
56990,0.730469,-0.339355,0.460938,0
57010,0.744141,-0.328613,0.466309,0
57030,0.75293,-0.334473,0.474121,0
57050,0.729004,-0.336426,0.46875,0
57070,0.727051,-0.331543,0.47168,0
57090,0.73877,-0.333496,0.446289,0
57110,0.76709,-0.304199,0.461426,0
57130,0.751465,-0.299805,0.460449,0
57150,0.739258,-0.307617,0.45166,0
57170,0.740234,-0.310547,0.458496,0
57190,0.756348,-0.292969,0.480469,0
57210,0.761719,-0.286621,0.465332,0
57230,0.745117,-0.298828,0.455566,0
57250,0.726562,-0.295898,0.47168,0
57270,0.748047,-0.294922,0.47168,0
57290,0.754883,-0.29541,0.467285,0
57310,0.730469,-0.283203,0.46582,0
57330,0.740723,-0.270508,0.479492,0
57350,0.759277,-0.265137,0.480957,0
57370,0.761719,-0.259277,0.48291,0
57390,0.745605,-0.237793,0.496094,0
57410,0.73877,-0.241211,0.489746,0
57430,0.743652,-0.265625,0.47168,0
57450,0.748047,-0.251953,0.483887,0
57470,0.743164,-0.251953,0.483887,0
57490,0.756836,-0.255371,0.48584,0
57510,0.76709,-0.255859,0.492188,0
57530,0.765137,-0.252441,0.487793,0
57550,0.748047,-0.26416,0.489258,0
57570,0.74707,-0.256348,0.479492,0
57590,0.749023,-0.248047,0.496582,0
57610,0.742188,-0.237793,0.487793,0
57630,0.744141,-0.244629,0.479492,0
57650,0.755859,-0.242676,0.492676,0
57670,0.728027,-0.219727,0.486816,0
57690,0.752441,-0.227539,0.48877,0
57710,0.763672,-0.23291,0.484375,0
57730,0.771484,-0.225586,0.493652,0
57750,0.763184,-0.223633,0.487305,0
57770,0.743652,-0.22168,0.475586,0
57790,0.755371,-0.205566,0.491699,0
57810,0.765137,-0.209961,0.489746,0
57830,0.773926,-0.216309,0.489258,0
57850,0.762207,-0.20752,0.489746,0
57870,0.753906,-0.20166,0.487305,0
57890,0.757324,-0.194824,0.50293,0
57910,0.738281,-0.189453,0.493652,0
57930,0.750977,-0.197754,0.492676,0
57950,0.770996,-0.189453,0.506836,0
57970,0.772949,-0.188965,0.509277,0
57990,0.76709,-0.18457,0.491699,0
58010,0.737305,-0.191406,0.499023,0
58030,0.754395,-0.177734,0.509277,0
58050,0.768555,-0.190918,0.501465,0
58070,0.770508,-0.182617,0.505371,0
58090,0.746094,-0.173828,0.508789,0
58110,0.746582,-0.172852,0.511719,0
58130,0.753418,-0.171387,0.518066,0
58140,0.755371,-0.177246,0.515137,0
58160,0.751465,-0.172363,0.512695,0
58180,0.751953,-0.165039,0.508789,0
58200,0.737793,-0.156738,0.508789,0
58220,0.746094,-0.155762,0.510742,0
58240,0.77832,-0.167969,0.515137,0
58260,0.76123,-0.155273,0.530273,0
58280,0.714844,-0.144043,0.529785,0
58300,0.718262,-0.160156,0.530762,0
58320,0.745117,-0.14502,0.54541,0
58340,0.745117,-0.140625,0.540039,0
58360,0.73584,-0.166016,0.519043,0
58380,0.775391,-0.157715,0.533691,0
58400,0.791992,-0.157715,0.537109,0
58420,0.756836,-0.165039,0.53125,0
58440,0.723633,-0.162598,0.538574,0
58460,0.741211,-0.172363,0.542969,0
58480,0.754883,-0.155762,0.55127,0
58500,0.732422,-0.161133,0.536133,0
58520,0.726074,-0.169922,0.533203,0
58540,0.726562,-0.168945,0.558594,0
58560,0.723633,-0.178711,0.555176,0
58580,0.729004,-0.166992,0.537109,0
58600,0.748535,-0.137207,0.554199,0
58620,0.716309,-0.124023,0.550293,0
58640,0.69873,-0.152832,0.532227,0
58660,0.701172,-0.156738,0.559082,0
58680,0.712402,-0.186035,0.546875,0
58700,0.75,-0.187988,0.541504,0
58720,0.733887,-0.162109,0.556641,0
58740,0.683105,-0.162109,0.547852,0
58760,0.692871,-0.182129,0.549316,0
58780,0.729492,-0.191406,0.549316,0
58800,0.741211,-0.181152,0.545898,0
58820,0.712891,-0.176758,0.553223,0
58840,0.698242,-0.175781,0.564453,0
58850,0.711914,-0.180176,0.555664,0
58870,0.725586,-0.179688,0.577148,0
58890,0.73291,-0.18457,0.569824,0
58910,0.717285,-0.194824,0.549316,0
58930,0.693359,-0.193359,0.553223,0
58950,0.685547,-0.186523,0.555664,0
58970,0.68457,-0.183105,0.551758,0
58990,0.681641,-0.166016,0.538086,0
59010,0.675781,-0.15332,0.54248,0
59030,0.675293,-0.155762,0.565918,0
59050,0.680176,-0.187988,0.55957,0
59070,0.68457,-0.213867,0.547363,0
59090,0.690918,-0.231445,0.553223,0
59110,0.697754,-0.22168,0.57373,0
59130,0.687988,-0.220703,0.576172,0
59150,0.681152,-0.237793,0.566406,0
59170,0.706055,-0.249512,0.564941,0
59190,0.699707,-0.234375,0.577148,0
59210,0.669922,-0.241699,0.584961,0
59230,0.67627,-0.250488,0.585938,0
59250,0.683594,-0.253906,0.586914,0
59270,0.699219,-0.220215,0.571777,0
59290,0.692871,-0.213867,0.578613,0
59310,0.680176,-0.231445,0.58252,0
59330,0.692871,-0.252441,0.576172,0
59350,0.68457,-0.262695,0.588867,0
59370,0.680664,-0.257812,0.584961,0
59390,0.702148,-0.232422,0.575684,0
59410,0.695801,-0.236328,0.555176,0
59430,0.685547,-0.25,0.567871,0
59450,0.700684,-0.250488,0.581055,0
59470,0.701172,-0.251465,0.56543,0
59490,0.689941,-0.245117,0.564941,0
59510,0.682617,-0.256836,0.579102,0
59530,0.686035,-0.26709,0.57373,0
59550,0.696289,-0.266113,0.570801,0
59570,0.683594,-0.270508,0.553711,0
59590,0.681641,-0.277832,0.567871,0
59610,0.703613,-0.275391,0.565918,0
59630,0.699707,-0.280273,0.560547,0
59650,0.67334,-0.288086,0.564941,0
59670,0.678223,-0.287598,0.572754,0
59690,0.681641,-0.278809,0.583984,0
59710,0.637695,-0.280273,0.546387,0
59730,0.621094,-0.306641,0.550293,0
59750,0.658203,-0.3125,0.559082,0
59770,0.678711,-0.320312,0.551758,0
59790,0.648438,-0.31543,0.535645,0
59810,0.602051,-0.320312,0.553711,0
59830,0.598145,-0.34375,0.561035,0
59850,0.625977,-0.36084,0.545898,0
59870,0.652832,-0.349609,0.550781,0
59890,0.642578,-0.351074,0.561523,0
59910,0.64209,-0.359863,0.564453,0
59930,0.653809,-0.366699,0.564453,0
59950,0.658203,-0.366211,0.556641,0
59970,0.647949,-0.36084,0.559082,0
59990,0.631836,-0.361816,0.549316,0
60010,0.629883,-0.37793,0.547852,0
60030,0.639648,-0.381836,0.555664,0
60050,0.620117,-0.395996,0.552734,0
60070,0.623535,-0.397949,0.544434,0
60090,0.648438,-0.381348,0.541016,0
60110,0.645996,-0.364258,0.536621,0
60130,0.625488,-0.374023,0.556152,0
60150,0.624023,-0.381836,0.560059,0
60170,0.644531,-0.397461,0.54834,0
60190,0.634766,-0.390625,0.550293,0
60210,0.614258,-0.380371,0.529297,0
60230,0.646973,-0.388672,0.532715,0
60250,0.648926,-0.395508,0.550293,0
60270,0.642578,-0.401367,0.545898,0
60290,0.654297,-0.406738,0.543945,0
60310,0.655762,-0.424316,0.5625,0
60330,0.641602,-0.434082,0.546387,0
60350,0.644043,-0.43457,0.542969,0
60370,0.635742,-0.422852,0.553223,0
60390,0.626465,-0.427734,0.562988,0
60410,0.623535,-0.453613,0.555176,0
60430,0.620605,-0.477051,0.54248,0
60450,0.620117,-0.474609,0.546875,0
60470,0.599121,-0.462891,0.552246,0
60490,0.603516,-0.474609,0.539551,0
60510,0.622559,-0.475098,0.535645,0
60530,0.604004,-0.456055,0.528809,0
60550,0.575195,-0.47998,0.525879,0
60570,0.602051,-0.48291,0.543945,0
60590,0.602539,-0.468262,0.529297,0
60610,0.570312,-0.466797,0.512695,0
60630,0.584473,-0.50293,0.505859,0
60650,0.606934,-0.496582,0.519043,0
60670,0.582031,-0.483887,0.51123,0
60690,0.543945,-0.489258,0.500488,0
60710,0.581543,-0.506348,0.514648,0
60730,0.582031,-0.507324,0.516113,0
60750,0.560059,-0.518066,0.505371,0
60770,0.571289,-0.531738,0.503418,0
60790,0.583496,-0.522949,0.516113,0
60810,0.568359,-0.507812,0.507812,0
60820,0.563477,-0.504395,0.490234,0
60840,0.566895,-0.516602,0.505371,0
60860,0.562988,-0.52832,0.495605,0
60880,0.55957,-0.54248,0.496582,0
60900,0.551758,-0.519531,0.484375,0
60920,0.552734,-0.516602,0.497559,0
60940,0.563965,-0.527344,0.503418,0
60960,0.577637,-0.542969,0.502441,0
60980,0.579102,-0.541992,0.515137,0
61000,0.572754,-0.541016,0.52002,0
61020,0.577637,-0.539062,0.506348,0
61040,0.585449,-0.55127,0.512695,0
61060,0.584473,-0.546387,0.511719,0
61080,0.570801,-0.54541,0.515625,0
61100,0.554688,-0.553223,0.505859,0
61120,0.59668,-0.554199,0.515137,0
61140,0.608887,-0.545898,0.508301,0
61160,0.574707,-0.54541,0.500488,0
61180,0.575195,-0.565918,0.497559,0
61200,0.584473,-0.561035,0.516113,0
61220,0.578125,-0.558105,0.507812,0
61240,0.580566,-0.553223,0.498047,0
61260,0.554688,-0.563965,0.484375,0
61280,0.554688,-0.545898,0.498535,0
61300,0.576172,-0.55127,0.487793,0
61320,0.557129,-0.551758,0.473633,0
61340,0.55957,-0.566895,0.495117,0
61360,0.565918,-0.563477,0.493652,0
61370,0.545898,-0.576172,0.48291,0
61390,0.546387,-0.566406,0.472656,0
61410,0.54541,-0.557129,0.469727,0
61430,0.552734,-0.554688,0.486328,0
61450,0.567383,-0.562012,0.47998,0
61470,0.576172,-0.570312,0.481445,0
61490,0.579102,-0.578125,0.481934,0
61510,0.578613,-0.569336,0.474121,0
61530,0.564941,-0.565918,0.484863,0
61550,0.560547,-0.580566,0.471191,0
61570,0.597656,-0.585449,0.473633,0
61590,0.570801,-0.592285,0.475586,0
61610,0.534668,-0.602539,0.46582,0
61630,0.558594,-0.592773,0.478516,0
61650,0.578613,-0.585938,0.470215,0
61670,0.567871,-0.587402,0.461426,0
61690,0.564941,-0.58252,0.458008,0
61710,0.564453,-0.603516,0.457031,0
61730,0.583984,-0.598633,0.464355,0
61750,0.590332,-0.588379,0.462402,0
61770,0.585938,-0.581055,0.460449,0
61790,0.577148,-0.57959,0.455078,0
61810,0.577637,-0.575195,0.45166,0
61830,0.555176,-0.578125,0.441895,0
61850,0.544922,-0.600586,0.447266,0
61870,0.599609,-0.594238,0.449707,0
61890,0.594238,-0.583008,0.438477,0
61910,0.555176,-0.579102,0.439941,0
61930,0.571777,-0.604492,0.450195,0
61950,0.583008,-0.606445,0.453125,0
61970,0.558594,-0.608398,0.425781,0
61990,0.558105,-0.608398,0.444336,0
62010,0.591309,-0.597656,0.45166,0
62030,0.57959,-0.588379,0.436523,0
62050,0.559082,-0.59668,0.429199,0
62070,0.575195,-0.612305,0.443359,0
62090,0.582031,-0.632812,0.431152,0
62110,0.559082,-0.612793,0.429688,0
62130,0.541016,-0.599121,0.435059,0
62150,0.549316,-0.612305,0.41748,0
62170,0.567383,-0.631836,0.42041,0
62190,0.557617,-0.623535,0.423828,0
62210,0.550781,-0.620117,0.420898,0
62230,0.588867,-0.626465,0.431152,0
62250,0.598633,-0.641113,0.420898,0
62270,0.560059,-0.631348,0.42334,0
62290,0.551758,-0.628418,0.414551,0
62310,0.576172,-0.635254,0.402344,0
62330,0.571777,-0.628418,0.404297,0
62350,0.558105,-0.62207,0.412109,0
62370,0.577148,-0.624512,0.397461,0
62390,0.58252,-0.635742,0.388184,0
62410,0.572754,-0.628906,0.395508,0
62430,0.567871,-0.619141,0.383789,0
62450,0.572754,-0.629395,0.381348,0
62470,0.573242,-0.63916,0.391113,0
62490,0.576172,-0.618164,0.383789,0
62510,0.57666,-0.630859,0.385742,0
62530,0.580566,-0.644531,0.37207,0
62550,0.600098,-0.644531,0.37793,0
62570,0.59375,-0.632324,0.371582,0
62590,0.584961,-0.64502,0.367188,0
62610,0.616699,-0.623535,0.373047,0
62630,0.601074,-0.62207,0.362793,0
62650,0.562988,-0.644043,0.36084,0
62670,0.573242,-0.650879,0.35498,0
62690,0.601074,-0.63916,0.344727,0
62710,0.597168,-0.629395,0.345215,0
62730,0.582031,-0.620117,0.349609,0
62750,0.602539,-0.626465,0.354492,0
62770,0.634277,-0.624023,0.359863,0
62790,0.630859,-0.634766,0.354004,0
62810,0.629883,-0.643555,0.35791,0
62830,0.641113,-0.633789,0.362305,0
62850,0.638672,-0.616699,0.346191,0
62870,0.62207,-0.61084,0.334961,0
62890,0.620605,-0.629395,0.338379,0
62910,0.642578,-0.623047,0.361328,0
62930,0.637695,-0.633301,0.340332,0
62950,0.615234,-0.634766,0.32959,0
62970,0.633789,-0.627441,0.334473,0
62990,0.661133,-0.622559,0.332031,0
63010,0.650879,-0.613281,0.328125,0
63030,0.644043,-0.598633,0.330566,0
63050,0.652832,-0.612793,0.322266,0
63070,0.653809,-0.619141,0.322754,0
63090,0.650391,-0.622559,0.324707,0
63110,0.666992,-0.617676,0.314941,0
63130,0.678223,-0.602539,0.325195,0
63150,0.692871,-0.591797,0.324219,0
63170,0.681641,-0.604004,0.303223,0
63190,0.669434,-0.603516,0.30957,0
63210,0.660156,-0.617676,0.317383,0
63230,0.65918,-0.626953,0.306641,0
63250,0.663086,-0.609863,0.303223,0
63270,0.650879,-0.608887,0.306641,0
63290,0.652832,-0.597168,0.30957,0
63310,0.651855,-0.600098,0.304688,0
63330,0.660156,-0.596191,0.302246,0
63350,0.657227,-0.598145,0.308105,0
63370,0.661133,-0.601074,0.300781,0
63390,0.65918,-0.613281,0.292969,0
63410,0.668457,-0.611328,0.294922,0
63430,0.674805,-0.606445,0.298828,0
63450,0.662598,-0.597656,0.289062,0
63470,0.647461,-0.599121,0.285156,0
63490,0.672852,-0.610352,0.295898,0
63510,0.711426,-0.596191,0.294434,0
63530,0.695312,-0.591309,0.28418,0
63550,0.677246,-0.585938,0.28418,0
63570,0.68457,-0.581055,0.289551,0
63590,0.714355,-0.585938,0.286133,0
63610,0.711914,-0.580566,0.279785,0
63630,0.708008,-0.567871,0.269043,0
63650,0.708496,-0.577148,0.265625,0
63670,0.70459,-0.587891,0.262207,0
63690,0.691895,-0.584473,0.27002,0
63710,0.697266,-0.570801,0.269043,0
63730,0.72168,-0.572266,0.266602,0
63750,0.724609,-0.552734,0.274902,0
63770,0.706055,-0.552734,0.274902,0
63790,0.70459,-0.569336,0.252441,0
63810,0.734863,-0.57959,0.267578,0
63830,0.742676,-0.558594,0.265625,0
63850,0.706055,-0.543457,0.243164,0
63870,0.702637,-0.563477,0.244141,0
63890,0.729492,-0.568359,0.25,0
63910,0.736816,-0.567383,0.246582,0
63930,0.728027,-0.557129,0.247559,0
63950,0.734863,-0.561523,0.248047,0
63970,0.75,-0.554688,0.247559,0
63990,0.761719,-0.569336,0.235352,0
64010,0.757812,-0.565918,0.254883,0
64030,0.754395,-0.569336,0.248047,0
64050,0.731934,-0.549316,0.241699,0
64070,0.733887,-0.547852,0.243652,0
64090,0.769043,-0.541504,0.242676,0
64110,0.777344,-0.536621,0.233398,0
64130,0.752441,-0.520996,0.227539,0
64150,0.747559,-0.525391,0.229492,0
64170,0.766113,-0.513184,0.225586,0
64190,0.780762,-0.51123,0.228027,0
64210,0.76709,-0.508301,0.217773,0
64220,0.756836,-0.518555,0.217285,0
64240,0.767578,-0.515137,0.226562,0
64260,0.774902,-0.508301,0.217773,0
64280,0.790039,-0.511719,0.214355,0
64300,0.768555,-0.504395,0.213379,0
64320,0.771973,-0.507812,0.223145,0
64340,0.789062,-0.5,0.223633,0
64360,0.800781,-0.5,0.206055,0
64380,0.802734,-0.501953,0.203125,0
64400,0.786621,-0.500977,0.211426,0
64420,0.771484,-0.498047,0.206543,0
64440,0.777832,-0.487793,0.20459,0
64460,0.796387,-0.479004,0.192383,0
64480,0.80127,-0.481934,0.195312,0
64500,0.804688,-0.470215,0.20752,0
64520,0.806152,-0.468262,0.199219,0
64540,0.815918,-0.472168,0.188965,0
64560,0.828125,-0.472656,0.199707,0
64580,0.814453,-0.459473,0.195801,0
64600,0.805176,-0.457031,0.199219,0
64620,0.821289,-0.459961,0.192871,0
64640,0.827148,-0.439453,0.187988,0
64660,0.838867,-0.436523,0.182617,0
64670,0.824707,-0.422363,0.178223,0
64670,0.82959,-0.402832,0.186035,0
64670,0.834473,-0.399902,0.17041,0
64690,0.837402,-0.396973,0.158203,0
64710,0.833008,-0.397949,0.175781,0
64730,0.83252,-0.402832,0.175781,0
64750,0.847168,-0.409668,0.185059,0
64770,0.848145,-0.404785,0.171875,0
64790,0.854004,-0.408203,0.179688,0
64810,0.842285,-0.390625,0.180664,0
64830,0.829102,-0.395996,0.188477,0
64850,0.850098,-0.386719,0.180176,0
64870,0.868652,-0.384766,0.187988,0
64890,0.869141,-0.361816,0.1875,0
64910,0.849609,-0.368164,0.176758,0
64930,0.85498,-0.373535,0.186035,0
64950,0.863281,-0.360352,0.183105,0
64970,0.849609,-0.350098,0.179688,0
64990,0.866699,-0.348633,0.180176,0
65010,0.875488,-0.353516,0.1875,0
65030,0.870117,-0.34082,0.193359,0
65050,0.884766,-0.334473,0.191406,0
65070,0.874512,-0.328125,0.19873,0
65090,0.860352,-0.319336,0.204102,0
65110,0.860352,-0.326172,0.200684,0
65130,0.878418,-0.320801,0.195801,0
65150,0.902344,-0.319824,0.203613,0
65170,0.882324,-0.315918,0.195801,0
65190,0.869141,-0.298828,0.20459,0
65210,0.881348,-0.287109,0.217773,0
65230,0.875977,-0.271484,0.208008,0
65250,0.882324,-0.270508,0.206543,0
65270,0.875977,-0.273438,0.208008,0
65290,0.878906,-0.282227,0.223633,0
65310,0.875,-0.276855,0.210449,0
65330,0.878418,-0.282227,0.203125,0
65350,0.906738,-0.273438,0.212402,0
65370,0.881836,-0.273926,0.217285,0
65390,0.877441,-0.265137,0.210449,0
65410,0.882812,-0.272461,0.213379,0
65430,0.891602,-0.258789,0.22168,0
65450,0.884766,-0.250488,0.223633,0
65470,0.870117,-0.258301,0.224121,0
65490,0.87793,-0.264648,0.213867,0
65510,0.887695,-0.255859,0.233398,0
65530,0.890137,-0.248047,0.21875,0
65550,0.890137,-0.261719,0.226074,0
65570,0.87793,-0.250488,0.217773,0
65590,0.894043,-0.246094,0.231445,0
65610,0.902832,-0.216309,0.237305,0
65630,0.894043,-0.220215,0.227539,0
65650,0.899902,-0.236328,0.205566,0
65670,0.919922,-0.218262,0.234375,0
65690,0.898438,-0.185059,0.25293,0
65710,0.881836,-0.196289,0.231934,0
65730,0.895508,-0.197266,0.227539,0
65750,0.907227,-0.207031,0.229492,0
65770,0.911133,-0.200684,0.234375,0
65790,0.90918,-0.199219,0.239746,0
65810,0.898926,-0.177246,0.244141,0
65830,0.880859,-0.169434,0.23584,0
65850,0.900879,-0.17627,0.234375,0
65870,0.919434,-0.17334,0.258789,0
65890,0.885742,-0.174805,0.262695,0
65910,0.867188,-0.180664,0.248535,0
65930,0.893066,-0.155273,0.271484,0
65950,0.899414,-0.146484,0.275391,0
65970,0.888672,-0.144043,0.259277,0
65990,0.903809,-0.138184,0.270508,0
66010,0.916504,-0.15332,0.285156,0
66030,0.876465,-0.15918,0.283203,0
66050,0.853516,-0.178223,0.285645,0
66070,0.875,-0.16748,0.308105,0
66090,0.891602,-0.156738,0.322754,0
66100,0.881348,-0.157227,0.310547,0
66120,0.885254,-0.181152,0.313477,0
66140,0.890137,-0.168457,0.33252,0
66160,0.911133,-0.17334,0.353516,0
66180,0.884277,-0.167969,0.331055,0
66200,0.841797,-0.176758,0.339844,0
66220,0.856934,-0.182129,0.365723,0
66240,0.86377,-0.183105,0.365723,0
66260,0.861328,-0.165527,0.356934,0
66280,0.859863,-0.165039,0.361328,0
66300,0.865234,-0.169922,0.36377,0
66320,0.842773,-0.173828,0.362305,0
66340,0.83252,-0.177734,0.376953,0
66360,0.839355,-0.155273,0.373535,0
66380,0.824219,-0.155273,0.352051,0
66400,0.827148,-0.15332,0.36377,0
66420,0.818848,-0.166992,0.357422,0
66440,0.797852,-0.17627,0.368652,0
66460,0.804688,-0.182129,0.379883,0
66480,0.830566,-0.180176,0.370605,0
66500,0.830078,-0.161621,0.378906,0
66520,0.8125,-0.161621,0.376465,0
66540,0.799805,-0.179199,0.384277,0
66560,0.810059,-0.189453,0.393066,0
66580,0.828613,-0.199219,0.398438,0
66600,0.847656,-0.194824,0.38916,0
66620,0.814941,-0.192383,0.39502,0
66640,0.814941,-0.194824,0.400879,0
66660,0.833008,-0.212402,0.415039,0
66680,0.828125,-0.208496,0.403809,0
66700,0.814941,-0.199707,0.398438,0
66720,0.81543,-0.199219,0.412109,0
66740,0.820801,-0.193359,0.400879,0
66760,0.803711,-0.208008,0.410645,0
66780,0.774902,-0.227539,0.430176,0
66800,0.790527,-0.256348,0.39502,0
66820,0.821289,-0.257812,0.402832,0
66840,0.810059,-0.246094,0.422363,0
66860,0.785645,-0.234375,0.40918,0
66880,0.765137,-0.265137,0.413574,0
66900,0.781738,-0.279785,0.415527,0
66920,0.806152,-0.282227,0.416504,0
66940,0.790039,-0.259766,0.424805,0
66960,0.76416,-0.272461,0.425293,0
66980,0.791504,-0.269043,0.428711,0
67000,0.800293,-0.263672,0.445312,0
67020,0.791992,-0.279785,0.443359,0
67040,0.80127,-0.296875,0.431641,0
67060,0.793945,-0.296387,0.426758,0
67080,0.755859,-0.310059,0.431152,0
67100,0.736816,-0.335938,0.448242,0
67120,0.788086,-0.325195,0.454102,0
67140,0.797852,-0.310059,0.437012,0
67160,0.734863,-0.285156,0.427734,0
67180,0.692871,-0.312012,0.439941,0
