Timestamp, Acceleration x, Acceleration y, Acceleration z, Marker
50,0.905273,-0.365234,-0.213867,0
70,0.89502,-0.37207,-0.206543,0
90,0.859863,-0.380371,-0.20752,0
110,0.823242,-0.365234,-0.212891,0
120,0.794434,-0.374023,-0.22168,0
120,0.825684,-0.365723,-0.20459,0
160,0.850586,-0.374023,-0.220215,0
180,0.862793,-0.373535,-0.22998,0
200,0.916016,-0.341309,-0.246582,0
220,0.956055,-0.342773,-0.23877,0
240,0.942383,-0.370605,-0.235352,0
260,0.921875,-0.402832,-0.230469,0
280,0.898926,-0.417969,-0.236816,0
300,0.868164,-0.423828,-0.253906,0
320,0.853516,-0.430664,-0.26123,0
340,0.871094,-0.391602,-0.256836,0
360,0.87207,-0.355469,-0.252441,0
380,0.848633,-0.355469,-0.26123,0
400,0.860352,-0.364746,-0.236328,0
420,0.880859,-0.370605,-0.205566,0
440,0.89209,-0.375977,-0.186035,0
460,0.884766,-0.368652,-0.16748,0
480,0.903809,-0.352539,-0.152832,0
500,0.933105,-0.363281,-0.152832,0
520,0.973633,-0.358887,-0.130371,0
540,0.972656,-0.375977,-0.119141,0
560,0.983398,-0.381348,-0.145996,0
580,0.964844,-0.338867,-0.147949,0
600,0.914062,-0.348145,-0.123047,0
620,0.894531,-0.430176,-0.127441,0
640,0.884766,-0.373047,-0.152832,0
660,0.871582,-0.373047,-0.193359,0
680,0.895996,-0.34668,-0.197266,0
700,0.94043,-0.317383,-0.179688,0
720,0.94873,-0.338867,-0.177246,0
740,0.933105,-0.354492,-0.174805,0
760,0.962402,-0.30127,-0.161133,0
780,0.986328,-0.295898,-0.156738,0
800,0.922852,-0.326172,-0.181152,0
820,0.863281,-0.347656,-0.210938,0
840,0.842773,-0.361328,-0.197754,0
860,0.897949,-0.377441,-0.17334,0
880,0.916016,-0.364746,-0.160645,0
900,0.897461,-0.328613,-0.18457,0
920,0.895996,-0.375977,-0.199707,0
940,0.845703,-0.386719,-0.164062,0
960,0.823242,-0.361328,-0.17334,0
980,0.815918,-0.429199,-0.206543,0
1000,0.822754,-0.40918,-0.219727,0
1020,0.881836,-0.369629,-0.206543,0
1040,0.884277,-0.382324,-0.169434,0
1060,0.876465,-0.403809,-0.182617,0
1080,0.891113,-0.408691,-0.190918,0
1100,0.886719,-0.428711,-0.197754,0
1120,0.852539,-0.416504,-0.214844,0
1140,0.825195,-0.414062,-0.191895,0
1160,0.824219,-0.416016,-0.158691,0
1180,0.825195,-0.430176,-0.183105,0
1200,0.799805,-0.441895,-0.195312,0
1220,0.79834,-0.409668,-0.169922,0
1240,0.811035,-0.423828,-0.14209,0
1260,0.799316,-0.463867,-0.164062,0
1280,0.838867,-0.431641,-0.17334,0
1300,0.883789,-0.428223,-0.142578,0
1320,0.827637,-0.48291,-0.141113,0
1340,0.852539,-0.518555,-0.115723,0
1360,0.911621,-0.541992,-0.149414,0
1380,0.907715,-0.606934,-0.165527,0
1390,0.87793,-0.578125,-0.183594,0
1410,0.935059,-0.46875,-0.17041,0
1430,0.938965,-0.444824,-0.197754,0
1450,0.949219,-0.469238,-0.197266,0
1470,0.881348,-0.487793,-0.196289,0
1490,0.811523,-0.440918,-0.186523,0
1510,0.825684,-0.428711,-0.143066,0
1530,0.820312,-0.47168,-0.185059,0
1550,0.802246,-0.47998,-0.158203,0
1570,0.782227,-0.489258,-0.171387,0
1590,0.845703,-0.436523,-0.147949,0
1610,0.879883,-0.408203,-0.125,0
1630,0.842773,-0.459473,-0.190918,0
1650,0.844727,-0.490234,-0.219238,0
1670,0.860352,-0.486328,-0.189453,0
1690,0.938477,-0.481445,-0.157227,0
1710,0.916016,-0.519531,-0.22998,0
1730,0.905273,-0.494629,-0.225098,0
1750,0.905762,-0.498535,-0.172852,0
1770,0.912109,-0.486328,-0.15918,0
1790,0.889648,-0.494629,-0.152344,0
1810,0.844238,-0.469238,-0.133789,0
1830,0.882812,-0.524414,-0.180176,0
1850,0.908203,-0.48584,-0.137207,0
1870,0.881836,-0.451172,-0.090332,0
1880,0.834961,-0.458496,-0.0996094,0
1900,0.79248,-0.471191,-0.0961914,0
1920,0.823242,-0.464355,-0.0600586,0
1940,0.785645,-0.439453,-0.0483398,0
1960,0.797363,-0.468262,-0.0761719,0
1980,0.827637,-0.507324,-0.0673828,0
2000,0.828125,-0.475098,-0.0668945,0
2020,0.844238,-0.470215,-0.0878906,0
2040,0.861816,-0.479004,-0.0761719,0
2060,0.851562,-0.477051,-0.0683594,0
2080,0.855957,-0.442871,-0.0751953,0
2100,0.870605,-0.453613,-0.0776367,0
2120,0.876465,-0.435059,-0.0805664,0
2140,0.86084,-0.437012,-0.0654297,0
2160,0.873535,-0.419434,-0.0854492,0
2180,0.875,-0.430176,-0.0673828,0
2200,0.877441,-0.44873,-0.0561523,0
2220,0.894043,-0.426758,-0.0405273,0
2240,0.855957,-0.414551,-0.065918,0
2260,0.839355,-0.42041,-0.0625,0
2280,0.84668,-0.409668,-0.0473633,0
2300,0.875,-0.419434,-0.03125,0
2320,0.88623,-0.419434,-0.0351562,0
2340,0.87793,-0.418945,-0.0317383,0
2360,0.908203,-0.435547,-0.0322266,0
2380,0.895508,-0.444336,-0.0297852,0
2400,0.890137,-0.427246,-0.0356445,0
2420,0.901855,-0.428711,-0.0600586,0
2440,0.906738,-0.421387,-0.0546875,0
2460,0.880371,-0.408203,-0.0517578,0
2480,0.860352,-0.412598,-0.0522461,0
2500,0.851562,-0.414551,-0.0512695,0
2520,0.835938,-0.410156,-0.0595703,0
2540,0.820312,-0.415039,-0.0683594,0
2560,0.825684,-0.407227,-0.0605469,0
2580,0.849121,-0.404297,-0.0800781,0
2600,0.882324,-0.406738,-0.0849609,0
2620,0.883789,-0.427246,-0.0830078,0
2640,0.862305,-0.437012,-0.0942383,0
2660,0.854004,-0.459473,-0.11377,0
2680,0.855469,-0.458008,-0.10498,0
2700,0.871582,-0.40332,-0.108887,0
2720,0.87207,-0.384277,-0.134277,0
2740,0.873047,-0.406738,-0.151367,0
2760,0.884277,-0.417969,-0.166016,0
2780,0.893555,-0.396973,-0.160156,0
2800,0.883301,-0.406738,-0.166992,0
2820,0.88623,-0.419922,-0.161621,0
2840,0.898438,-0.408691,-0.154785,0
2860,0.914551,-0.39502,-0.150391,0
2880,0.914551,-0.38916,-0.162109,0
2900,0.908203,-0.396484,-0.155273,0
2920,0.914062,-0.381348,-0.148438,0
2940,0.914551,-0.369141,-0.145508,0
2960,0.909668,-0.380371,-0.145996,0
2980,0.905273,-0.379883,-0.150879,0
3000,0.897949,-0.38916,-0.148926,0
3020,0.888672,-0.379883,-0.137695,0
3040,0.880371,-0.374512,-0.144531,0
3060,0.858887,-0.381348,-0.147461,0
3080,0.844727,-0.378906,-0.15332,0
3100,0.830566,-0.37207,-0.143066,0
3120,0.823242,-0.366699,-0.128418,0
3140,0.803711,-0.374512,-0.137207,0
3160,0.794434,-0.369629,-0.141602,0
3180,0.788086,-0.356445,-0.138184,0
3200,0.776855,-0.351074,-0.136719,0
3220,0.769043,-0.333496,-0.128418,0
3240,0.773438,-0.296875,-0.132812,0
3260,0.77002,-0.293457,-0.129395,0
3280,0.791992,-0.282715,-0.100098,0
3300,0.827637,-0.258301,-0.0615234,0
3320,0.854004,-0.257324,-0.0195312,0
3340,0.872559,-0.262695,0.0195312,0
3360,0.859375,-0.265137,0.0761719,0
3380,0.895996,-0.225586,0.130371,0
3400,0.890137,-0.213867,0.19043,0
3420,0.915527,-0.185547,0.235352,0
3440,0.900879,-0.166504,0.294922,0
3460,0.866699,-0.150391,0.34082,0
3480,0.830566,-0.129883,0.401855,0
3500,0.796387,-0.149414,0.45166,0
3520,0.77832,-0.183594,0.509277,0
3540,0.737305,-0.169434,0.54248,0
3560,0.697754,-0.143066,0.57959,0
3580,0.665527,-0.139648,0.603516,0
3600,0.699707,-0.141602,0.664062,0
3620,0.645508,-0.153809,0.708984,0
3640,0.59668,-0.172363,0.713379,0
3660,0.528809,-0.199219,0.705078,0
3680,0.519043,-0.179199,0.717285,0
3700,0.538086,-0.168457,0.770996,0
3720,0.494141,-0.194824,0.787598,0
3740,0.456543,-0.225098,0.774414,0
3760,0.445801,-0.216797,0.78418,0
3780,0.386719,-0.198242,0.80957,0
3800,0.345215,-0.194336,0.849609,0
3820,0.318359,-0.23291,0.845703,0
3840,0.282227,-0.246094,0.820801,0
3850,0.289062,-0.194336,0.854004,0
3870,0.208984,-0.108398,0.892578,0
3890,0.111328,-0.116699,0.858398,0
3910,0.0341797,-0.191895,0.848633,0
3930,0.0239258,-0.215332,0.900879,0
3950,0.0112305,-0.221191,0.887207,0
3970,-0.106934,-0.23877,0.864746,0
3990,-0.26123,-0.282227,0.829102,0
4010,-0.366699,-0.365723,0.827148,0
4030,-0.459961,-0.405762,0.849609,0
4050,-0.635254,-0.356445,0.819336,0
4070,-0.817871,-0.43457,0.937012,0
4090,-0.813965,-0.54248,1.01416,0
4110,-0.592285,-0.569824,1.0293,0
4130,-0.378906,-0.472656,1.09131,0
4150,-0.279785,-0.349121,1.00977,0
4170,-0.355469,-0.26123,0.925293,0
4190,-0.402832,-0.190918,0.924805,0
4210,-0.291016,-0.189453,0.962891,0
4210,-0.155762,-0.202148,0.925293,0
4230,-0.143555,-0.182129,0.878906,0
4260,-0.166992,-0.123047,0.836914,0
4280,-0.166504,-0.0878906,0.807129,0
4300,-0.188477,-0.0498047,0.818359,0
4320,-0.244141,-0.0805664,0.836914,0
4340,-0.271484,-0.0742188,0.87207,0
4360,-0.306152,-0.0727539,0.97168,0
4380,-0.317871,-0.0932617,0.971191,0
4400,-0.275879,-0.0722656,1.02637,0
4420,-0.194336,-0.0571289,1.09131,0
4440,-0.0180664,-0.0151367,1.0835,0
4460,0.20166,-0.0854492,1.05908,0
4480,0.275879,-0.097168,0.993164,0
4500,0.308594,-0.0253906,1.01855,0
4520,0.367188,-0.012207,0.986816,0
4540,0.421387,-0.0322266,0.924316,0
4560,0.523438,-0.0786133,0.886719,0
4580,0.597656,-0.151855,0.799805,0
4600,0.540039,-0.17041,0.726562,0
4620,0.440918,-0.235352,0.63916,0
4640,0.601074,-0.267578,0.657227,0
4660,0.657227,-0.262695,0.643066,0
4680,0.598633,-0.287598,0.554199,0
4700,0.63623,-0.331543,0.574707,0
4720,0.712402,-0.298828,0.61084,0
4740,0.688965,-0.273926,0.606445,0
4760,0.605957,-0.215332,0.553223,0
4780,0.655273,-0.189941,0.558594,0
4800,0.643555,-0.141113,0.510254,0
4820,0.611328,-0.105469,0.436523,0
4840,0.552246,-0.120605,0.442383,0
4860,0.568848,-0.0620117,0.430664,0
4880,0.587891,-0.097168,0.422852,0
4900,0.607422,-0.15918,0.374023,0
4920,0.591797,-0.171387,0.400879,0
4940,0.583984,-0.13623,0.422852,0
4960,0.625,-0.15918,0.404297,0
4980,0.694336,-0.208984,0.424805,0
5000,0.739746,-0.205078,0.469727,0
5020,0.739258,-0.220703,0.473633,0
5040,0.787598,-0.232422,0.473633,0
5060,0.876953,-0.219727,0.507812,0
5080,0.844727,-0.204102,0.549316,0
5100,0.795898,-0.209473,0.524902,0
5120,0.776367,-0.227539,0.532715,0
5140,0.783691,-0.219727,0.549805,0
5160,0.708008,-0.263672,0.549316,0
5180,0.660645,-0.265625,0.534668,0
5200,0.660645,-0.262695,0.530762,0
5220,0.668945,-0.260742,0.537598,0
5240,0.638184,-0.274902,0.558594,0
5260,0.631836,-0.277344,0.556152,0
5280,0.615723,-0.301758,0.55127,0
5300,0.658203,-0.281738,0.551758,0
5320,0.60498,-0.276367,0.549805,0
5340,0.620605,-0.278809,0.509277,0
5360,0.663086,-0.26416,0.501953,0
5380,0.728027,-0.213867,0.496094,0
5400,0.77002,-0.209473,0.496582,0
5420,0.771484,-0.198242,0.51416,0
5440,0.784668,-0.249512,0.527344,0
5470,0.768066,-0.280273,0.523926,0
5490,0.744629,-0.292969,0.52832,0
5510,0.727051,-0.264648,0.540527,0
5530,0.717773,-0.243652,0.535645,0
5550,0.687988,-0.222168,0.545898,0
5570,0.669922,-0.22168,0.547852,0
5590,0.69043,-0.223145,0.587402,0
5610,0.634766,-0.229492,0.59668,0
5630,0.57373,-0.25293,0.609863,0
5650,0.513184,-0.279785,0.627441,0
5670,0.51709,-0.282715,0.637207,0
5690,0.512207,-0.28418,0.629883,0
5710,0.569336,-0.285645,0.648438,0
5730,0.513672,-0.302734,0.662598,0
5750,0.569824,-0.284668,0.697754,0
5770,0.692383,-0.255371,0.740723,0
5790,0.821289,-0.236328,0.770996,0
5810,0.870117,-0.291504,0.77002,0
5830,0.928711,-0.240234,0.761719,0
5850,1.0376,-0.0883789,0.742676,0
5870,1.03857,-0.0292969,0.635254,0
5890,0.964844,-0.0639648,0.538574,0
5910,0.930664,-0.0507812,0.5,0
5930,0.939453,-0.0463867,0.466797,0
5950,0.89502,-0.0708008,0.401367,0
5970,0.929199,-0.0727539,0.348633,0
5990,0.915039,-0.0688477,0.323242,0
6010,0.902344,-0.0395508,0.277832,0
6030,0.897949,-0.0214844,0.256348,0
6050,0.894531,-0.0576172,0.215332,0
6070,0.849121,-0.11377,0.17627,0
6090,0.831055,-0.145508,0.166016,0
6110,0.796875,-0.183105,0.165527,0
6130,0.822266,-0.215332,0.15918,0
6150,0.823242,-0.266113,0.147949,0
6170,0.810059,-0.305176,0.146484,0
6170,0.806152,-0.306641,0.154297,0
6190,0.699707,-0.326172,0.145508,0
6210,0.753418,-0.378906,0.15918,0
6230,0.701172,-0.472656,0.0693359,0
6250,0.818359,-0.375488,0.126465,0
6270,0.836914,-0.381348,0.104004,0
6290,0.860352,-0.422363,0.0683594,0
6310,0.864258,-0.404297,0.0317383,0
6330,0.817871,-0.438477,0.0332031,0
6350,0.83252,-0.427246,0.0195312,0
6370,0.875,-0.44043,0.0600586,0
6390,0.87207,-0.43457,0.0512695,0
6410,0.865723,-0.489258,0.0512695,0
6430,0.851562,-0.490723,0.0683594,0
6450,0.758301,-0.498535,0.043457,0
6470,0.916504,-0.470215,0.0463867,0
6490,0.922363,-0.472168,0.0366211,0
6510,0.837402,-0.52002,0.046875,0
6530,0.754395,-0.46875,0.078125,0
6550,0.777344,-0.462402,0.0644531,0
6570,0.814941,-0.495117,0.059082,0
6590,0.825684,-0.499023,0.0556641,0
6610,0.816406,-0.473633,0.065918,0
6630,0.833984,-0.45459,0.0571289,0
6650,0.849121,-0.461914,0.0517578,0
6670,0.85791,-0.469238,0.0351562,0
6690,0.869141,-0.438965,0.0249023,0
6710,0.885742,-0.436523,-0.000488281,0
6730,0.855469,-0.410156,-0.00585938,0
6750,0.84375,-0.410156,-0.0263672,0
6770,0.851074,-0.395996,-0.0146484,0
6790,0.863281,-0.410156,-0.0205078,0
6810,0.876953,-0.419434,-0.0566406,0
6830,0.890625,-0.409668,-0.0688477,0
6850,0.89502,-0.387695,-0.0717773,0
6870,0.911621,-0.393066,-0.104492,0
6890,0.905762,-0.388672,-0.133301,0
6910,0.897461,-0.385742,-0.124512,0
6930,0.878418,-0.378906,-0.141113,0
6950,0.891602,-0.351074,-0.147461,0
6970,0.895508,-0.364746,-0.126953,0
6990,0.890625,-0.359863,-0.117188,0
7010,0.884766,-0.371094,-0.12207,0
7030,0.883301,-0.366211,-0.129395,0
7050,0.916016,-0.345703,-0.133789,0
7070,0.911621,-0.369141,-0.125,0
7090,0.895996,-0.408203,-0.132812,0
7110,0.890137,-0.39209,-0.135742,0
7120,0.883301,-0.372559,-0.162109,0
7140,0.887695,-0.356934,-0.154297,0
7160,0.848145,-0.366699,-0.140137,0
7180,0.837402,-0.405762,-0.133789,0
7200,0.858398,-0.399902,-0.128906,0
7220,0.861816,-0.41748,-0.122559,0
7240,0.879395,-0.408203,-0.106934,0
7260,0.89502,-0.40332,-0.0546875,0
7280,0.890137,-0.426758,-0.0615234,0
7300,0.919922,-0.418457,-0.0786133,0
7320,0.920898,-0.41748,-0.0678711,0
7340,0.901855,-0.399902,-0.050293,0
7360,0.916992,-0.371094,-0.0512695,0
7380,0.9375,-0.375,-0.0830078,0
7400,0.915527,-0.369629,-0.0864258,0
7420,0.905762,-0.369629,-0.0849609,0
7440,0.958496,-0.375488,-0.133301,0
7460,0.943359,-0.378906,-0.134766,0
7480,0.900391,-0.384766,-0.137207,0
7500,0.900879,-0.375977,-0.150391,0
7520,0.887695,-0.360352,-0.145508,0
7540,0.859863,-0.335938,-0.162109,0
7560,0.882812,-0.338379,-0.146484,0
7580,0.88623,-0.370117,-0.123047,0
7600,0.881348,-0.378418,-0.132324,0
7620,0.873535,-0.388672,-0.138184,0
7640,0.844238,-0.378906,-0.130371,0
7660,0.835938,-0.384277,-0.116211,0
7680,0.849609,-0.390137,-0.140625,0
7700,0.85791,-0.399414,-0.146973,0
7720,0.859863,-0.37207,-0.126465,0
7740,0.848145,-0.385254,-0.126465,0
7760,0.837891,-0.410156,-0.145996,0
7780,0.83252,-0.376465,-0.112793,0
7800,0.922363,-0.385742,-0.0693359,0
7820,0.888184,-0.444336,-0.050293,0
7840,0.827637,-0.460449,-0.0444336,0
7860,0.843262,-0.457031,-0.0595703,0
7880,0.871582,-0.438965,-0.027832,0
7900,0.880371,-0.429688,-0.0322266,0
7920,0.905762,-0.398926,-0.0292969,0
7940,0.894531,-0.39209,-0.0336914,0
7960,0.875,-0.398926,-0.0415039,0
7980,0.889648,-0.38916,-0.0556641,0
8000,0.921387,-0.356445,-0.0688477,0
8020,0.952637,-0.375977,-0.106934,0
8040,0.976562,-0.365234,-0.0908203,0
8060,0.977051,-0.307129,-0.0595703,0
8080,0.973145,-0.331543,-0.0712891,0
8100,0.955078,-0.416992,-0.124512,0
8120,0.955078,-0.367188,-0.12207,0
8140,0.960938,-0.321289,-0.101562,0
8160,0.910156,-0.371582,-0.105957,0
8180,0.888184,-0.375488,-0.0874023,0
8200,0.862793,-0.372559,-0.0610352,0
8220,0.852539,-0.413086,-0.0351562,0
8240,0.814453,-0.439941,-0.0458984,0
8260,0.822754,-0.405762,-0.0556641,0
8280,0.848145,-0.389648,-0.00488281,0
8300,0.849121,-0.439941,-0.0283203,0
8320,0.866699,-0.426758,-0.0639648,0
8340,0.843262,-0.46875,-0.0522461,0
8360,0.833984,-0.464844,-0.0180664,0
8380,0.84375,-0.458984,-0.0078125,0
8400,0.845215,-0.456055,-0.000976562,0
8420,0.867188,-0.433594,-0.0102539,0
8440,0.879395,-0.448242,-0.00976562,0
8460,0.876465,-0.443359,-0.0112305,0
8480,0.879883,-0.472168,-0.0107422,0
8500,0.900391,-0.495117,0.019043,0
8520,0.844727,-0.487793,0.0336914,0
8540,0.850098,-0.486328,0.0317383,0
8560,0.865234,-0.489746,0.0341797,0
8580,0.852539,-0.492676,0.0161133,0
8600,0.854004,-0.476074,0.0302734,0
8620,0.864258,-0.434082,0.0292969,0
8640,0.852051,-0.454102,0.0341797,0
8660,0.838379,-0.459473,0.0244141,0
8680,0.84668,-0.429688,0.0297852,0
8700,0.839355,-0.411133,0.0302734,0
8720,0.833984,-0.437988,0.0224609,0
8740,0.864746,-0.412109,0.0288086,0
8760,0.881836,-0.445312,0.0297852,0
8780,0.887207,-0.484375,0.059082,0
8800,0.843262,-0.512207,0.0708008,0
8820,0.813477,-0.536133,0.0678711,0
8840,0.916992,-0.558105,0.121582,0
8860,0.814941,-0.563965,0.13623,0
8880,0.769043,-0.53418,0.050293,0
8900,0.787598,-0.458008,0.0668945,0
8920,0.772461,-0.48291,0.0595703,0
8940,0.762207,-0.516602,0.0615234,0
8960,0.756348,-0.51123,0.104004,0
8980,0.791504,-0.496582,0.113281,0
9000,0.807617,-0.499023,0.081543,0
9020,0.820312,-0.494629,0.0825195,0
9040,0.833984,-0.439941,0.0668945,0
9060,0.834961,-0.471191,0.0478516,0
9070,0.831543,-0.463867,0.0239258,0
9090,0.845215,-0.434082,0.0327148,0
9110,0.844238,-0.424316,0.0424805,0
9130,0.855469,-0.455078,0.0341797,0
9150,0.88623,-0.456055,0.0322266,0
9170,0.882324,-0.424316,0.0488281,0
9190,0.868164,-0.445801,0.0541992,0
9210,0.885254,-0.444824,0.0410156,0
9230,0.882324,-0.436523,0.0332031,0
9250,0.870117,-0.414062,0.0292969,0
9270,0.869629,-0.404297,0.0151367,0
9290,0.873047,-0.422852,-0.0151367,0
9310,0.930664,-0.422852,0.0224609,0
9330,0.916992,-0.349121,0.0673828,0
9350,0.828125,-0.305176,0.0371094,0
9370,0.807129,-0.31543,0.0561523,0
9390,0.801758,-0.37793,0.0683594,0
9410,0.794434,-0.411133,0.114746,0
9430,0.814941,-0.415527,0.126465,0
9450,0.80957,-0.467773,0.120605,0
9470,0.84375,-0.476074,0.0966797,0
9490,0.832031,-0.518555,0.0888672,0
9510,0.880371,-0.507324,0.12207,0
9530,0.898438,-0.491699,0.147949,0
9550,0.880859,-0.49707,0.10791,0
9570,0.879395,-0.504883,0.0922852,0
9590,0.897949,-0.459473,0.135254,0
9610,0.869141,-0.466309,0.137695,0
9630,0.866211,-0.469238,0.125488,0
9650,0.87793,-0.453125,0.133789,0
9670,0.831055,-0.452148,0.125488,0
9690,0.848633,-0.452148,0.121094,0
9710,0.856445,-0.41748,0.130859,0
9730,0.833496,-0.399902,0.14502,0
9750,0.854004,-0.409668,0.176758,0
9770,0.870117,-0.422852,0.141602,0
9790,0.853516,-0.425293,0.122559,0
9810,0.844238,-0.429688,0.141113,0
9830,0.838379,-0.416504,0.152832,0
9850,0.844238,-0.4375,0.135254,0
9870,0.851074,-0.433105,0.123535,0
9890,0.873535,-0.444824,0.135254,0
9910,0.865234,-0.439453,0.125488,0
9930,0.845703,-0.419434,0.114746,0
9950,0.879395,-0.427734,0.0927734,0
9970,0.875977,-0.432129,0.11084,0
9990,0.818359,-0.414551,0.110352,0
10010,0.842285,-0.419922,0.112305,0
10030,0.850586,-0.419434,0.11377,0
10050,0.854004,-0.420898,0.128418,0
10070,0.88916,-0.420898,0.128418,0
10090,0.899414,-0.416504,0.12207,0
10110,0.864258,-0.438477,0.11377,0
10130,0.875,-0.45459,0.133789,0
10150,0.853516,-0.436523,0.168457,0
10170,0.82373,-0.458008,0.0966797,0
10190,0.861328,-0.454102,0.0932617,0
10210,0.884766,-0.402832,0.128906,0
10230,0.821289,-0.42334,0.118652,0
10250,0.808594,-0.412598,0.0991211,0
10270,0.80957,-0.424316,0.0961914,0
10290,0.789551,-0.413574,0.118164,0
10310,0.84375,-0.427246,0.137207,0
10330,0.837402,-0.439941,0.106445,0
10350,0.856934,-0.426758,0.0849609,0
10370,0.868164,-0.421387,0.0947266,0
10390,0.869629,-0.42627,0.0771484,0
10410,0.821289,-0.424316,0.0639648,0
10430,0.736328,-0.390137,0.119629,0
10450,0.875,-0.393066,0.0844727,0
10470,0.875,-0.381348,0.0839844,0
10490,0.940918,-0.463379,0.0922852,0
10510,0.838379,-0.41748,0.0800781,0
10530,0.758789,-0.374023,0.050293,0
10550,0.777832,-0.355957,0.0405273,0
10570,0.810547,-0.358887,0.0146484,0
10590,0.854004,-0.365234,0.0341797,0
10610,0.94873,-0.321777,0.0800781,0
10630,0.917969,-0.349609,0.0927734,0
10650,0.894531,-0.378906,0.065918,0
10670,0.950195,-0.396973,0.0385742,0
10690,0.960938,-0.413086,0.0717773,0
10710,0.976074,-0.40625,0.0761719,0
10730,0.992676,-0.37207,0.0561523,0
10750,1.00391,-0.390137,0.0361328,0
10770,0.959961,-0.428223,0.0605469,0
10790,0.827637,-0.444824,0.0820312,0
10810,0.844727,-0.394531,0.0756836,0
10830,0.847656,-0.408203,0.0693359,0
10850,0.876953,-0.416992,0.0541992,0
10870,0.870117,-0.402344,0.0864258,0
10890,0.901367,-0.391113,0.0844727,0
10910,0.904297,-0.455078,0.0654297,0
10930,0.881348,-0.443848,0.0146484,0
10950,0.87793,-0.419922,0.0327148,0
10970,0.956055,-0.416016,0.0556641,0
10990,0.962402,-0.442871,0.102051,0
11010,0.877441,-0.5,0.0703125,0
11030,0.792969,-0.397949,0.104492,0
11050,0.763184,-0.355957,0.0991211,0
11070,0.803711,-0.395508,0.0170898,0
11090,0.791504,-0.402344,0.0239258,0
11110,0.794922,-0.408203,0.0649414,0
11130,0.789062,-0.447754,0.103027,0
11150,0.785645,-0.495605,0.0742188,0
11170,0.78418,-0.519531,0.0576172,0
11190,0.800781,-0.496582,0.0639648,0
11210,0.820801,-0.477051,0.0664062,0
11230,0.83252,-0.467773,0.0458984,0
11250,0.833008,-0.461426,0.0610352,0
11270,0.83252,-0.475586,0.0498047,0
11290,0.810547,-0.477051,0.0498047,0
11310,0.843262,-0.458008,0.046875,0
11330,0.868652,-0.498047,0.0566406,0
11350,0.857422,-0.508301,0.0541992,0
11370,0.816406,-0.523438,0.0751953,0
11390,0.822266,-0.508789,0.0874023,0
11410,0.830566,-0.506348,0.0957031,0
11430,0.840332,-0.48584,0.0947266,0
11450,0.865723,-0.504395,0.0649414,0
11470,0.816406,-0.470703,0.10791,0
11490,0.794434,-0.475098,0.11377,0
11510,0.82666,-0.503906,0.0751953,0
11530,0.829102,-0.474121,0.0986328,0
11550,0.808594,-0.477539,0.114746,0
11570,0.816895,-0.480957,0.123535,0
11590,0.804688,-0.465332,0.130371,0
11610,0.825684,-0.457031,0.109863,0
11630,0.86377,-0.453613,0.104492,0
11650,0.806152,-0.461914,0.131836,0
11670,0.813965,-0.479492,0.125977,0
11690,0.805664,-0.524902,0.131836,0
11710,0.753418,-0.515137,0.157227,0
11730,0.820801,-0.541016,0.152832,0
11750,0.773438,-0.515137,0.155273,0
11770,0.788086,-0.495605,0.131836,0
11790,0.859375,-0.477539,0.136719,0
11810,0.890625,-0.474121,0.117676,0
11830,0.870117,-0.474609,0.117188,0
11850,0.802246,-0.481445,0.134277,0
11870,0.809082,-0.480469,0.125,0
11890,0.812012,-0.470215,0.129395,0
11910,0.818359,-0.458496,0.136719,0
11930,0.845703,-0.470215,0.141602,0
11950,0.816406,-0.476562,0.137207,0
11970,0.807617,-0.48291,0.145508,0
11990,0.820801,-0.495117,0.143066,0
12010,0.827637,-0.485352,0.159668,0
12030,0.821289,-0.476562,0.143066,0
12050,0.824219,-0.471191,0.135742,0
12070,0.824707,-0.466797,0.138184,0
12090,0.826172,-0.460938,0.15332,0
12110,0.807617,-0.474609,0.157715,0
12130,0.816895,-0.471191,0.152344,0
12150,0.822266,-0.479492,0.138672,0
12170,0.817871,-0.476074,0.142578,0
12190,0.825195,-0.47168,0.148438,0
12210,0.814453,-0.469727,0.15918,0
12230,0.834473,-0.456543,0.166016,0
12250,0.822754,-0.470703,0.158691,0
12270,0.810059,-0.469727,0.166504,0
12290,0.791992,-0.481934,0.17627,0
12310,0.791992,-0.494629,0.191406,0
12330,0.818359,-0.500488,0.192871,0
12350,0.796387,-0.466309,0.193848,0
12370,0.793457,-0.468262,0.168945,0
12390,0.808594,-0.472168,0.185059,0
12410,0.790039,-0.479492,0.187988,0
12430,0.821289,-0.492188,0.181152,0
12450,0.84082,-0.477051,0.188965,0
12460,0.806641,-0.497559,0.179199,0
12480,0.804199,-0.490723,0.19043,0
12500,0.825684,-0.490723,0.193359,0
12520,0.805176,-0.48291,0.181152,0
12540,0.785645,-0.474121,0.192383,0
12560,0.80127,-0.470215,0.192871,0
12580,0.828613,-0.495605,0.203613,0
12600,0.797852,-0.490234,0.211426,0
12620,0.771973,-0.484863,0.199707,0
12640,0.800781,-0.47168,0.198242,0
12660,0.802734,-0.469727,0.210938,0
12680,0.790527,-0.478516,0.226562,0
12700,0.815918,-0.495117,0.23291,0
12720,0.831055,-0.506836,0.228516,0
12750,0.820801,-0.516113,0.226074,0
12750,0.833984,-0.505859,0.193848,0
12770,0.864746,-0.465332,0.181641,0
12790,0.897949,-0.415039,0.191895,0
12820,0.833984,-0.45459,0.115723,0
12840,0.831055,-0.429688,0.15625,0
12860,0.875977,-0.432617,0.150391,0
12880,0.890625,-0.430176,0.112793,0
12900,0.904785,-0.40918,0.125977,0
12920,0.912598,-0.397949,0.115234,0
12940,0.90918,-0.44043,0.124023,0
12960,0.90918,-0.43457,0.11377,0
12980,0.852051,-0.414551,0.123535,0
13000,0.825684,-0.40918,0.108398,0
13020,0.845703,-0.358887,0.105957,0
13040,0.849609,-0.389648,0.126953,0
13060,0.802246,-0.388184,0.112305,0
13080,0.773438,-0.373535,0.114746,0
13100,0.833496,-0.316895,0.164551,0
13120,0.820801,-0.34375,0.12207,0
13140,0.811523,-0.349121,0.0849609,0
13160,0.818848,-0.342285,0.0908203,0
13180,0.829102,-0.339355,0.0688477,0
13200,0.856445,-0.317383,0.0703125,0
13220,0.849121,-0.333008,0.0820312,0
13240,0.85791,-0.385254,0.0361328,0
13260,0.862305,-0.384277,0.0478516,0
13280,0.878418,-0.363281,0.0742188,0
13300,0.866211,-0.383789,0.0712891,0
13320,0.86377,-0.407227,0.0385742,0
13340,0.878906,-0.402344,0.0517578,0
13360,0.90918,-0.42627,-0.0288086,0
13380,0.931152,-0.374512,-0.0341797,0
13400,0.97168,-0.319824,0.0209961,0
13420,1.02637,-0.354004,0.0317383,0
13440,0.895508,-0.347168,0.00439453,0
13460,0.826172,-0.314453,0.0180664,0
13480,0.82373,-0.300781,0.0263672,0
13500,0.901367,-0.330078,-0.00732422,0
13520,1.021,-0.351562,0.00537109,0
13540,0.950195,-0.32373,0.0410156,0
13560,0.96875,-0.400391,0.0825195,0
13580,0.890625,-0.45752,0.0473633,0
13600,0.866211,-0.425293,0.0473633,0
13620,0.925781,-0.339844,0.0483398,0
13640,0.85791,-0.384766,0.0429688,0
13660,0.838379,-0.375488,0.0292969,0
13680,0.898438,-0.375488,0.0107422,0
13700,0.923828,-0.350098,0.019043,0
13720,0.878906,-0.318848,0.0639648,0
13740,0.850098,-0.305176,0.0209961,0
13760,0.86084,-0.322754,-0.0185547,0
13780,0.835938,-0.279785,0.0170898,0
13800,0.89209,-0.285645,0.0307617,0
13820,0.868652,-0.296387,0.0385742,0
13840,0.855957,-0.314941,0.0126953,0
13860,0.86377,-0.291016,0.0244141,0
13880,0.916016,-0.258789,0.0136719,0
13900,0.880859,-0.284668,-0.012207,0
13920,0.876953,-0.322266,-0.0102539,0
13940,0.893555,-0.340332,-0.00878906,0
13960,0.983398,-0.312988,0.0439453,0
13980,0.947754,-0.303711,0.0478516,0
14000,0.939453,-0.341309,0.0180664,0
14020,0.869629,-0.345215,0.0185547,0
14040,0.90625,-0.345215,0.0415039,0
14060,0.942383,-0.331543,0.0532227,0
14080,0.918945,-0.326172,0.0214844,0
14100,0.894531,-0.311035,0.0292969,0
14120,0.895996,-0.334473,0.046875,0
14140,0.939941,-0.32959,0.0595703,0
14160,0.90625,-0.343262,0.0507812,0
14180,0.894043,-0.336914,0.0703125,0
14200,0.91748,-0.37793,0.081543,0
14220,0.920898,-0.385742,0.0703125,0
14240,0.914062,-0.365234,0.0922852,0
14260,0.890137,-0.347168,0.0996094,0
14280,0.880371,-0.371582,0.105957,0
14300,0.84668,-0.388184,0.115234,0
14320,0.837402,-0.385742,0.117188,0
14340,0.835938,-0.361328,0.122559,0
14350,0.861816,-0.356445,0.110352,0
14370,0.880859,-0.389648,0.129883,0
14390,0.842285,-0.373535,0.129395,0
14410,0.871582,-0.38623,0.142578,0
14430,0.938477,-0.358398,0.142578,0
14450,0.835938,-0.355469,0.138184,0
14470,0.941895,-0.304688,0.108887,0
14490,0.904785,-0.358887,0.090332,0
14510,0.89209,-0.359375,0.0678711,0
14530,0.899414,-0.38916,0.107422,0
14550,0.869629,-0.384766,0.125488,0
14570,0.836426,-0.441895,0.141113,0
14590,0.833008,-0.405273,0.134766,0
14610,0.938965,-0.407227,0.10791,0
14630,0.969727,-0.302734,0.152344,0
14650,0.975098,-0.333984,0.0874023,0
14670,0.905273,-0.385742,0.0996094,0
14690,0.888184,-0.346191,0.097168,0
14710,0.89209,-0.353516,0.0771484,0
14730,0.847656,-0.310547,0.0537109,0
14750,0.859375,-0.301758,0.059082,0
14770,0.867676,-0.327148,0.059082,0
14790,0.815918,-0.334961,0.0766602,0
14810,0.852539,-0.355469,0.0620117,0
14830,0.91748,-0.372559,0.0932617,0
14850,0.90918,-0.361816,0.0830078,0
14870,0.929688,-0.375,0.0927734,0
14890,0.910156,-0.358887,0.0981445,0
14910,0.91748,-0.356445,0.09375,0
14930,0.924316,-0.357422,0.0883789,0
14950,0.909668,-0.342773,0.0810547,0
14970,0.916504,-0.344238,0.0810547,0
14990,0.878418,-0.342285,0.078125,0
15010,0.89502,-0.334961,0.0532227,0
15030,0.880859,-0.337891,0.0600586,0
15050,0.875488,-0.32959,0.0576172,0
15070,0.895996,-0.345215,0.0478516,0
15090,0.889648,-0.356445,0.0561523,0
15110,0.88916,-0.356445,0.0585938,0
15130,0.891602,-0.359375,0.050293,0
15150,0.927246,-0.358887,0.0473633,0
15170,0.890137,-0.371582,0.0366211,0
15190,0.85791,-0.360352,0.0419922,0
15210,0.865234,-0.35791,0.0410156,0
15230,0.888672,-0.36084,0.0444336,0
15250,0.897949,-0.352539,0.0385742,0
15270,0.882812,-0.340332,0.050293,0
15290,0.875,-0.347168,0.0610352,0
15310,0.869141,-0.35498,0.0454102,0
15330,0.895508,-0.36377,0.0610352,0
15350,0.901855,-0.361328,0.065918,0
15370,0.92041,-0.373047,0.0673828,0
15390,0.912598,-0.368652,0.0629883,0
15410,0.902832,-0.345215,0.0424805,0
15430,0.883789,-0.376465,0.0458984,0
15450,0.913574,-0.35791,0.0576172,0
15470,0.925293,-0.349609,0.0493164,0
15490,0.902344,-0.364746,0.0302734,0
15510,0.867188,-0.373047,0.0668945,0
15530,0.85791,-0.34375,0.0605469,0
15550,0.855469,-0.367188,0.0703125,0
15570,0.878906,-0.325195,0.0527344,0
15590,0.896484,-0.36084,0.0673828,0
15610,0.878906,-0.367676,0.0795898,0
15630,0.87793,-0.358887,0.0571289,0
15650,0.904785,-0.366211,0.0541992,0
15670,0.906738,-0.370117,0.0493164,0
15690,0.932129,-0.336426,0.0410156,0
15710,0.956543,-0.346191,0.043457,0
15730,0.924805,-0.361816,0.0244141,0
15750,0.900391,-0.34082,0.0175781,0
15770,0.888672,-0.314453,0.00439453,0
15790,0.901367,-0.342773,0.00976562,0
15810,0.874512,-0.331543,0.0078125,0
15830,0.902832,-0.338867,0.0146484,0
15850,0.90625,-0.328125,0.0253906,0
15870,0.923828,-0.333496,0.0332031,0
15890,0.914551,-0.324707,0.0458984,0
15910,0.862305,-0.359375,0.0395508,0
15930,0.868652,-0.373535,0.0253906,0
15950,0.916016,-0.372559,0.0307617,0
15970,0.921387,-0.356445,0.027832,0
15990,0.881836,-0.349609,0.027832,0
16010,0.885254,-0.364258,0.0205078,0
16030,0.915039,-0.361328,0.0292969,0
16050,0.935059,-0.322266,0.0131836,0
16070,0.924316,-0.352051,-0.0131836,0
16090,0.951172,-0.386719,0.00878906,0
16110,0.950684,-0.352051,0.0107422,0
16130,0.931152,-0.344238,-0.019043,0
16150,0.898926,-0.335449,-0.00634766,0
16170,0.86377,-0.365234,0.0175781,0
16190,0.895508,-0.332031,-0.00390625,0
16210,0.88916,-0.308594,0.00341797,0
16230,0.84375,-0.319336,0.00927734,0
16250,0.850098,-0.346191,-0.00488281,0
16270,0.861816,-0.345703,0.0205078,0
16290,0.854004,-0.299805,0.0219727,0
16310,0.893066,-0.328613,-0.00537109,0
16330,0.929199,-0.341309,-0.0107422,0
16350,0.902832,-0.322754,-0.0361328,0
16370,0.888672,-0.321777,-0.00146484,0
16390,0.915527,-0.339355,-0.0102539,0
16410,0.964844,-0.35498,-0.0180664,0
16430,0.947754,-0.333496,-0.0117188,0
16450,0.926758,-0.36377,-0.0224609,0
16470,0.88916,-0.350586,-0.0307617,0
16490,0.892578,-0.34375,-0.0366211,0
16510,0.932129,-0.337891,-0.0146484,0
16530,0.958984,-0.337402,0.00537109,0
16550,0.913574,-0.374512,-0.00390625,0
16570,0.89502,-0.362305,-0.0112305,0
16590,0.88916,-0.337891,0.00244141,0
16610,0.911621,-0.337891,-0.00292969,0
16630,0.883789,-0.356445,-0.00634766,0
16650,0.876953,-0.351562,-0.0146484,0
16670,0.856934,-0.352539,-0.0161133,0
16690,0.866699,-0.34375,-0.00976562,0
16710,0.920898,-0.337402,0.00146484,0
16730,0.85498,-0.35791,-0.00439453,0
16750,0.878418,-0.348145,-0.00585938,0
16770,0.891602,-0.32959,0.00195312,0
16790,0.92041,-0.359863,0.0195312,0
16810,0.955566,-0.365234,0.019043,0
16830,0.941406,-0.374023,0.00341797,0
16850,0.907227,-0.346191,0.00146484,0
16870,0.878906,-0.335938,0.0185547,0
16890,0.897461,-0.338379,-0.00146484,0
16910,0.948242,-0.333496,0.0136719,0
16930,0.942871,-0.34668,0.000488281,0
16950,0.869629,-0.318359,0.00537109,0
16970,0.890625,-0.338379,0.0175781,0
16990,0.907715,-0.32666,-0.012207,0
17010,0.886719,-0.319336,0.0141602,0
17030,0.855469,-0.314941,0.0473633,0
17050,0.863281,-0.348633,0.00146484,0
17070,0.898438,-0.350586,0.00732422,0
17090,0.879883,-0.335938,-0.00878906,0
17110,0.936523,-0.32373,0.00830078,0
17130,0.931641,-0.310547,-0.00878906,0
17150,0.904297,-0.349121,-0.00585938,0
17170,0.962891,-0.311035,-0.0200195,0
17190,0.978516,-0.336426,-0.0283203,0
17210,0.956543,-0.302246,0.00732422,0
17230,0.943359,-0.318359,-0.000976562,0
17250,0.933105,-0.342285,-0.0185547,0
17270,0.886719,-0.324219,-0.00537109,0
17290,0.924805,-0.348145,0.0161133,0
17310,0.907715,-0.325684,0.0322266,0
17330,0.912598,-0.355957,0.0410156,0
17350,0.899902,-0.374023,0.0239258,0
17370,0.88916,-0.382324,0.0361328,0
17390,0.895508,-0.375,0.0288086,0
17410,0.883789,-0.376465,0.0136719,0
17430,0.905273,-0.367676,0.015625,0
17450,0.913086,-0.364746,0.0214844,0
17470,0.879883,-0.328613,0.000976562,0
17490,0.883789,-0.345703,-0.0185547,0
17510,0.879883,-0.327148,-0.012207,0
17530,0.893555,-0.300781,-0.0166016,0
17550,0.867188,-0.322266,-0.00341797,0
17570,0.913574,-0.324219,0.0166016,0
17590,0.944824,-0.342285,0.0219727,0
17610,0.945312,-0.325195,0.015625,0
17630,0.938477,-0.32373,0.012207,0
17650,0.904297,-0.334961,0.00927734,0
17670,0.926758,-0.33252,-0.00390625,0
17690,0.9375,-0.318359,0.00146484,0
17710,0.959473,-0.345215,-0.00537109,0
17720,0.98584,-0.412598,0.0239258,0
17740,0.941895,-0.444336,0.0244141,0
17760,0.907227,-0.351074,0.0253906,0
17780,0.887207,-0.354492,-0.0170898,0
17800,0.885254,-0.314453,0.00732422,0
17820,0.829102,-0.333496,0.0258789,0
17840,0.803711,-0.323242,-0.00585938,0
17860,0.843262,-0.340332,0.0180664,0
17880,0.842773,-0.293457,-0.0292969,0
17900,0.834473,-0.318359,-0.00927734,0
17920,0.881348,-0.283691,-0.0170898,0
17940,0.930176,-0.355469,-0.0253906,0
17960,0.955566,-0.322266,-0.0292969,0
17980,0.946777,-0.351562,-0.0170898,0
18000,0.973633,-0.344727,-0.0249023,0
18020,0.951172,-0.339844,-0.0229492,0
18040,0.936523,-0.352539,-0.0180664,0
18060,0.94873,-0.338379,-0.00195312,0
18080,0.922852,-0.352539,-0.0112305,0
18100,0.924805,-0.36084,-0.0112305,0
18120,0.883789,-0.364746,-0.0112305,0
18140,0.893066,-0.375,0.00927734,0
18160,0.899902,-0.372559,0.0126953,0
18180,0.889648,-0.385254,0.0297852,0
18200,0.895996,-0.376465,0.00146484,0
18220,0.895996,-0.387695,0.0336914,0
18240,0.888184,-0.384277,0.0136719,0
18260,0.895996,-0.381836,-0.00439453,0
18280,0.885254,-0.371094,-0.0175781,0
18300,0.882324,-0.348145,-0.0283203,0
18320,0.867676,-0.35791,-0.034668,0
18340,0.88916,-0.364258,-0.0307617,0
18360,0.885254,-0.381836,-0.0209961,0
18380,0.888672,-0.366211,-0.0219727,0
18400,0.863281,-0.376465,-0.0322266,0
18420,0.878418,-0.38916,-0.00585938,0
18440,0.89209,-0.380859,-0.000976562,0
18460,0.90332,-0.380371,0.0415039,0
18480,0.878418,-0.435059,0.0292969,0
18500,0.920898,-0.461426,-0.0253906,0
18520,0.925781,-0.392578,0.000488281,0
18540,0.899414,-0.404297,0.00878906,0
18560,0.868652,-0.445801,-0.0166016,0
18580,0.867676,-0.4375,-0.0302734,0
18600,0.85791,-0.395996,-0.0351562,0
18620,0.859375,-0.371094,-0.0493164,0
18640,0.810547,-0.411133,-0.0483398,0
18660,0.824707,-0.428711,-0.0576172,0
18680,0.864746,-0.431641,-0.03125,0
18700,0.881348,-0.432617,-0.0454102,0
18720,0.866211,-0.462402,-0.0366211,0
18740,0.859375,-0.479004,-0.0512695,0
18760,0.858398,-0.502441,-0.0678711,0
18780,0.850586,-0.561523,-0.0634766,0
18800,0.721191,-0.665039,-0.0581055,0
18820,0.877441,-0.526367,-0.0395508,0
18840,0.799316,-0.387695,-0.0507812,0
18860,0.711914,-0.455078,-0.0493164,0
18880,0.745117,-0.544434,-0.0561523,0
18900,0.842285,-0.550293,-0.015625,0
18920,0.899414,-0.508789,-0.0273438,0
18940,0.833008,-0.539062,-0.0170898,0
18960,0.823242,-0.506348,-0.0610352,0
18980,0.879883,-0.503906,-0.0419922,0
19000,0.839844,-0.515137,-0.0546875,0
19020,0.787598,-0.523438,-0.0839844,0
19040,0.818848,-0.487305,-0.102539,0
19060,0.818848,-0.475098,-0.0800781,0
19080,0.802734,-0.528809,-0.081543,0
19100,0.81543,-0.494141,-0.111328,0
19120,0.80127,-0.501953,-0.0932617,0
19140,0.862305,-0.525391,-0.0332031,0
19160,0.903809,-0.523438,-0.0200195,0
19180,0.930664,-0.506348,-0.0527344,0
19200,0.979004,-0.506836,-0.0483398,0
19220,0.94043,-0.526367,-0.0244141,0
19240,0.871582,-0.51123,-0.0375977,0
19260,0.853027,-0.490234,-0.0219727,0
19280,0.875,-0.505371,-0.0454102,0
19300,0.858398,-0.528809,-0.0317383,0
19320,0.882812,-0.46875,-0.0317383,0
19340,0.853516,-0.487305,-0.0688477,0
19360,0.804688,-0.487793,-0.116699,0
19380,0.842285,-0.504883,-0.0908203,0
19400,0.84082,-0.518555,-0.0932617,0
19420,0.827637,-0.559082,-0.135742,0
19440,0.837891,-0.553223,-0.170898,0
19460,0.866699,-0.451172,-0.143066,0
19480,0.919922,-0.455078,-0.166016,0
19500,0.910645,-0.444336,-0.194336,0
19520,0.828125,-0.43457,-0.176758,0
19540,0.792969,-0.503418,-0.189453,0
19560,0.778809,-0.536133,-0.237793,0
19580,0.799316,-0.45166,-0.226074,0
19600,0.835449,-0.387207,-0.189941,0
19620,0.841797,-0.410156,-0.231934,0
19640,0.85498,-0.398438,-0.236816,0
19650,0.841309,-0.368652,-0.211914,0
19680,0.818848,-0.42041,-0.249512,0
19690,0.791992,-0.46582,-0.262207,0
19710,0.837891,-0.446289,-0.266602,0
19730,0.819336,-0.454102,-0.270996,0
19750,0.820801,-0.473633,-0.276367,0
19770,0.80957,-0.484863,-0.285156,0
19790,0.822754,-0.477051,-0.260742,0
19810,0.84668,-0.512695,-0.280273,0
19830,0.838867,-0.576172,-0.324219,0
19850,0.84375,-0.527344,-0.246582,0
19870,0.834961,-0.513672,-0.230957,0
19890,0.812012,-0.57373,-0.260254,0
19910,0.80127,-0.546875,-0.26123,0
19930,0.775391,-0.532227,-0.268066,0
19950,0.76123,-0.481445,-0.235352,0
19970,0.754883,-0.468262,-0.241211,0
19990,0.765625,-0.475098,-0.254883,0
20010,0.769531,-0.497559,-0.236328,0
20030,0.766602,-0.503418,-0.239746,0
20050,0.782715,-0.526855,-0.236816,0
20070,0.805176,-0.544922,-0.242188,0
20090,0.820312,-0.539062,-0.233887,0
20110,0.82666,-0.537109,-0.238281,0
20130,0.82666,-0.549805,-0.265625,0
20150,0.825195,-0.54541,-0.264648,0
20170,0.826172,-0.525879,-0.243652,0
20190,0.83252,-0.528809,-0.259766,0
20210,0.838379,-0.521973,-0.274902,0
20230,0.845215,-0.501465,-0.262207,0
20250,0.827637,-0.511719,-0.27002,0
20270,0.824707,-0.502441,-0.25293,0
20290,0.821777,-0.481445,-0.259277,0
20310,0.832031,-0.490234,-0.277832,0
20330,0.816895,-0.455078,-0.252441,0
20350,0.774902,-0.42334,-0.231445,0
20370,0.774902,-0.435059,-0.216797,0
20390,0.838867,-0.391602,-0.186523,0
20410,0.85498,-0.485352,-0.242188,0
20430,0.933105,-0.50293,-0.251953,0
20450,0.785645,-0.503906,-0.244141,0
20470,0.782227,-0.505371,-0.208008,0
20490,0.864258,-0.49707,-0.223145,0
20510,0.898926,-0.543457,-0.231934,0
20530,0.895996,-0.466309,-0.241211,0
20550,0.873047,-0.449219,-0.21582,0
20570,0.883301,-0.469238,-0.231934,0
20590,0.873535,-0.476562,-0.205566,0
20610,0.861816,-0.480957,-0.183594,0
20630,0.836914,-0.442383,-0.187012,0
20650,0.786133,-0.492676,-0.183105,0
20670,0.874512,-0.480469,-0.172852,0
20690,0.879883,-0.477051,-0.14209,0
20710,0.854004,-0.458008,-0.127441,0
20730,0.839355,-0.477051,-0.161133,0
20750,0.858398,-0.472656,-0.180664,0
20770,0.97168,-0.385742,-0.18457,0
20790,0.902832,-0.384766,-0.180664,0
20810,0.797852,-0.433594,-0.201172,0
20830,0.769043,-0.399414,-0.208008,0
20850,0.819336,-0.397461,-0.225098,0
20870,0.894043,-0.376953,-0.219238,0
20890,0.89502,-0.400879,-0.247559,0
20910,0.97168,-0.397949,-0.234375,0
20930,0.989258,-0.435059,-0.1875,0
20950,0.868652,-0.503418,-0.19043,0
20970,0.879395,-0.444336,-0.183105,0
20990,0.96582,-0.394531,-0.138672,0
21010,0.904785,-0.450684,-0.147461,0
21030,0.882812,-0.450684,-0.128906,0
21050,0.849121,-0.412598,-0.119141,0
21070,0.836914,-0.398926,-0.123535,0
21090,0.82959,-0.396973,-0.145996,0
21110,0.792969,-0.392578,-0.129883,0
21130,0.805176,-0.390137,-0.126465,0
21150,0.833008,-0.382324,-0.155273,0
21170,0.828613,-0.40332,-0.148438,0
21190,0.825684,-0.385742,-0.14209,0
21210,0.822266,-0.389648,-0.146973,0
21230,0.813477,-0.391113,-0.163086,0
21250,0.746582,-0.418945,-0.131348,0
21270,0.745605,-0.432617,-0.159668,0
21290,0.72168,-0.412109,-0.175781,0
21310,0.68457,-0.354492,-0.115723,0
21330,0.681641,-0.351074,-0.112793,0
21350,0.667969,-0.303711,-0.113281,0
21370,0.673828,-0.255371,-0.0844727,0
21390,0.6875,-0.243652,-0.0507812,0
21410,0.728516,-0.25,-0.0224609,0
21430,0.96582,-0.21875,0.0664062,0
21450,0.852051,-0.21582,0.144043,0
21470,0.744629,-0.147949,0.174316,0
21490,0.744629,-0.172852,0.233887,0
21510,0.845215,-0.177246,0.341797,0
21530,0.834473,-0.12793,0.460938,0
21550,0.754883,-0.178711,0.543457,0
21570,0.65918,-0.247559,0.578125,0
21590,0.642578,-0.175781,0.666992,0
21620,0.69873,-0.214355,0.869629,0
21650,0.604492,-0.317383,1.04785,0
21670,0.628418,-0.302246,1.0791,0
21690,0.606934,-0.345703,1.06592,0
21710,0.57666,-0.354004,1.07812,0
21730,0.598145,-0.338867,1.09521,0
21750,0.59082,-0.39209,1.07764,0
21770,0.60791,-0.376953,1.04541,0
21790,0.590332,-0.330566,0.980957,0
21810,0.602539,-0.285645,0.967773,0
21830,0.654785,-0.286133,0.95459,0
21850,0.770508,-0.271484,0.860352,0
21860,0.837891,-0.206055,0.78418,0
21880,0.837402,-0.141602,0.693848,0
21900,0.928223,-0.171875,0.580078,0
21920,0.92334,-0.200684,0.519531,0
21940,0.884277,-0.15918,0.433594,0
21960,0.909668,-0.12207,0.364258,0
21980,0.854492,-0.153809,0.304688,0
22000,0.806152,-0.149902,0.230957,0
22020,0.736328,-0.134766,0.140137,0
22040,0.706543,-0.135742,0.0771484,0
22060,0.67041,-0.201172,0.0444336,0
22080,0.685059,-0.248535,-0.00439453,0
22100,0.680664,-0.227539,-0.0395508,0
22120,0.685059,-0.231445,-0.0258789,0
22140,0.719727,-0.250488,-0.0385742,0
22150,0.771484,-0.239746,-0.0366211,0
22170,0.805176,-0.308594,-0.0356445,0
22190,0.805176,-0.347656,-0.0292969,0
22210,0.822754,-0.230957,0.0219727,0
22230,0.847168,-0.301758,0.0493164,0
22250,0.859863,-0.35498,0.0429688,0
22270,0.922363,-0.355957,0.0371094,0
22290,0.920898,-0.342773,0.046875,0
22310,0.947266,-0.335938,-0.000488281,0
22330,0.879395,-0.39502,0.0141602,0
22350,0.871094,-0.325195,-0.0146484,0
22370,0.870117,-0.323242,0.00439453,0
22390,0.849121,-0.345703,0.0224609,0
22410,0.854004,-0.336426,0.0263672,0
22430,0.88916,-0.366699,0.0439453,0
22450,0.936523,-0.326172,0.0444336,0
22470,0.894043,-0.291992,0.0419922,0
22490,0.844238,-0.317871,0.0458984,0
22510,0.841309,-0.355957,0.0415039,0
22530,0.87207,-0.334961,0.0615234,0
22550,0.866699,-0.327637,0.074707,0
22570,0.863281,-0.352539,0.081543,0
22590,0.922363,-0.368652,0.0791016,0
22610,0.894531,-0.388184,0.0844727,0
22630,0.865234,-0.39502,0.0615234,0
22650,0.896973,-0.357422,0.0820312,0
22670,0.913574,-0.35498,0.0791016,0
22690,0.921875,-0.362793,0.0756836,0
22710,0.924805,-0.32959,0.0834961,0
22730,0.90332,-0.30127,0.100586,0
22750,0.861328,-0.303711,0.0976562,0
22770,0.859375,-0.322754,0.0664062,0
22790,0.866699,-0.346191,0.0625,0
22810,0.851074,-0.326172,0.09375,0
22830,0.887695,-0.333008,0.109863,0
22850,0.912598,-0.367188,0.0766602,0
22870,0.998535,-0.401855,0.0717773,0
22890,0.984375,-0.39502,0.081543,0
22910,0.958984,-0.397461,0.0786133,0
22930,0.983887,-0.384766,0.0942383,0
22950,0.953613,-0.40332,0.106934,0
22970,0.90918,-0.413574,0.0874023,0
22980,0.90625,-0.391113,0.101562,0
23000,0.910156,-0.356445,0.103516,0
23020,0.86377,-0.333496,0.107422,0
23040,0.843262,-0.33252,0.116211,0
23060,0.841309,-0.370605,0.135742,0
23080,0.81543,-0.337891,0.141113,0
23100,0.809082,-0.340332,0.102051,0
23120,0.807617,-0.35791,0.0981445,0
23140,0.795898,-0.373535,0.113281,0
23160,0.791504,-0.375488,0.109375,0
23180,0.790527,-0.354492,0.107422,0
23200,0.787109,-0.360352,0.103516,0
23220,0.776855,-0.338379,0.120605,0
23230,0.785645,-0.323242,0.126465,0
23250,0.821777,-0.294434,0.139648,0
23270,0.823242,-0.278809,0.148926,0
23300,0.758301,-0.296387,0.163574,0
23320,0.755371,-0.283691,0.18457,0
23340,0.771484,-0.235352,0.212402,0
23360,0.769531,-0.219727,0.25,0
23380,0.73291,-0.224121,0.265137,0
23400,0.734375,-0.233887,0.280762,0
23420,0.767578,-0.224609,0.31543,0
23440,0.783691,-0.198242,0.381836,0
23460,0.76416,-0.200684,0.414062,0
23480,0.743652,-0.196289,0.444824,0
23500,0.771973,-0.167969,0.50293,0
23520,0.785645,-0.137695,0.553223,0
23540,0.759766,-0.160645,0.581543,0
23560,0.719727,-0.164551,0.633301,0
23580,0.690918,-0.181641,0.669434,0
23600,0.708496,-0.181641,0.716309,0
23620,0.706543,-0.185547,0.751465,0
23640,0.655273,-0.154297,0.787109,0
23660,0.577148,-0.166992,0.79248,0
23680,0.550781,-0.224609,0.791992,0
23700,0.546387,-0.230469,0.831055,0
23720,0.489746,-0.175293,0.833496,0
23740,0.432129,-0.184082,0.84082,0
23760,0.404785,-0.175781,0.828125,0
23780,0.369629,-0.181152,0.816406,0
23800,0.349121,-0.161133,0.837402,0
23820,0.325684,-0.152344,0.845215,0
23840,0.246094,-0.193848,0.849121,0
23860,0.196777,-0.222656,0.835938,0
23880,0.21875,-0.197754,0.857422,0
23900,0.222656,-0.172363,0.885742,0
23920,0.205566,-0.164551,0.89209,0
23940,0.165039,-0.218262,0.896973,0
23960,0.148438,-0.204102,0.885254,0
23980,0.160156,-0.198242,0.895996,0
24000,0.14502,-0.212891,0.864746,0
24020,0.0986328,-0.247559,0.865723,0
24040,0.0576172,-0.209961,0.907227,0
24060,0.0478516,-0.189941,0.913086,0
24080,0.0400391,-0.234863,0.866211,0
24100,-0.00244141,-0.237793,0.865234,0
24120,-0.0932617,-0.237793,0.866699,0
24140,-0.1875,-0.186523,0.859863,0
24160,-0.257324,-0.174805,0.876953,0
24180,-0.336914,-0.240234,0.823242,0
24200,-0.452148,-0.278809,0.760254,0
24220,-0.574219,-0.25,0.779785,0
24240,-0.567383,-0.281738,0.785156,0
24260,-0.527344,-0.360352,0.766113,0
24280,-0.605469,-0.358398,0.748535,0
24300,-0.712891,-0.423828,0.833496,0
24320,-0.652344,-0.414062,0.943359,0
24340,-0.495605,-0.359375,0.92627,0
24360,-0.397949,-0.349121,0.997559,0
24380,-0.365723,-0.324707,1.02881,0
24400,-0.304688,-0.354004,1.06104,0
24420,-0.236816,-0.346191,1.04883,0
24440,-0.217773,-0.311523,1.06396,0
24450,-0.206055,-0.245605,1.05957,0
24470,-0.18457,-0.261719,1.01514,0
24490,-0.146973,-0.260742,1.02393,0
24510,-0.113281,-0.214355,1.02979,0
24530,-0.0869141,-0.21582,0.976074,0
24550,-0.0639648,-0.212402,0.954102,0
24570,-0.0415039,-0.169434,0.942383,0
24590,-0.046875,-0.156738,0.894043,0
24610,-0.0537109,-0.181641,0.875,0
24630,-0.0302734,-0.188477,0.887695,0
24650,0.0205078,-0.166992,0.86377,0
24670,0.0209961,-0.159668,0.835449,0
24690,0.0253906,-0.182129,0.819824,0
24710,0.0463867,-0.187012,0.811523,0
24730,0.0615234,-0.199219,0.808594,0
24750,0.0644531,-0.22168,0.785645,0
24770,0.0639648,-0.275879,0.756836,0
24790,0.0551758,-0.321289,0.771973,0
24810,0.0844727,-0.286133,0.788574,0
24830,0.0742188,-0.236816,0.743164,0
24850,0.0678711,-0.231445,0.725098,0
24870,0.101074,-0.283691,0.734863,0
24890,0.155762,-0.289551,0.768555,0
24900,0.17627,-0.300781,0.766113,0
24920,0.177734,-0.346191,0.779785,0
24940,0.174316,-0.388184,0.755371,0
24960,0.174805,-0.390625,0.77002,0
24980,0.188477,-0.384277,0.767578,0
25000,0.200684,-0.347656,0.763672,0
25020,0.20166,-0.338867,0.773926,0
25040,0.191406,-0.352051,0.791504,0
25060,0.199219,-0.37793,0.806152,0
25080,0.213867,-0.384277,0.817383,0
25100,0.195801,-0.380371,0.818359,0
25120,0.197266,-0.365723,0.832031,0
25140,0.216797,-0.362793,0.83252,0
25160,0.230469,-0.373047,0.844238,0
25180,0.205566,-0.37793,0.844727,0
25200,0.187012,-0.388184,0.840332,0
25220,0.191406,-0.386719,0.829102,0
25240,0.197266,-0.361328,0.82373,0
25260,0.194824,-0.351074,0.812012,0
25280,0.176758,-0.343262,0.817383,0
25300,0.178223,-0.352539,0.81543,0
25320,0.175781,-0.372559,0.810059,0
25340,0.161621,-0.36377,0.806641,0
25360,0.150879,-0.36377,0.816406,0
25380,0.161133,-0.355957,0.801758,0
25400,0.168457,-0.375977,0.797363,0
25420,0.182617,-0.365234,0.811523,0
25440,0.183594,-0.367676,0.821777,0
25460,0.193359,-0.365723,0.822266,0
25480,0.203613,-0.37207,0.823242,0
25500,0.210938,-0.378906,0.825684,0
25520,0.211914,-0.373047,0.826172,0
25540,0.20752,-0.358398,0.819824,0
25560,0.195801,-0.353516,0.820312,0
25580,0.201172,-0.353516,0.817383,0
25600,0.196289,-0.364746,0.817383,0
25620,0.180664,-0.357422,0.817383,0
25640,0.161621,-0.355957,0.814453,0
25660,0.146484,-0.359863,0.809082,0
25680,0.13916,-0.36377,0.797852,0
25700,0.141113,-0.349121,0.810547,0
25720,0.157715,-0.336914,0.816406,0
25740,0.17334,-0.333496,0.814941,0
25760,0.177734,-0.33252,0.824707,0
25780,0.15625,-0.365723,0.82959,0
25800,0.10791,-0.367188,0.819336,0
25820,0.0854492,-0.34375,0.828613,0
25840,0.130371,-0.328125,0.828613,0
25860,0.187988,-0.323242,0.835938,0
25880,0.218262,-0.306641,0.842773,0
25900,0.25,-0.297852,0.847656,0
25910,0.305176,-0.271973,0.855469,0
25930,0.344727,-0.253418,0.866699,0
25950,0.330078,-0.232422,0.876953,0
25970,0.313477,-0.205078,0.883789,0
25990,0.297363,-0.226074,0.872559,0
26010,0.29248,-0.243164,0.880371,0
26030,0.276855,-0.23877,0.866699,0
26050,0.24707,-0.224609,0.86084,0
26070,0.250488,-0.227539,0.839844,0
26090,0.269043,-0.241699,0.841797,0
26110,0.272949,-0.232422,0.852539,0
26130,0.259277,-0.234375,0.846191,0
26150,0.263672,-0.251953,0.833496,0
26170,0.265137,-0.235352,0.836914,0
26190,0.237793,-0.226074,0.838867,0
26210,0.21875,-0.235352,0.827637,0
26230,0.224121,-0.25,0.822266,0
26250,0.209473,-0.251465,0.833496,0
26270,0.206055,-0.258301,0.833984,0
26290,0.201172,-0.269043,0.837891,0
26310,0.204102,-0.262207,0.853516,0
26330,0.202637,-0.263672,0.849609,0
26350,0.20459,-0.270996,0.84668,0
26370,0.219727,-0.269531,0.861328,0
26390,0.22998,-0.25293,0.858398,0
26410,0.229492,-0.27002,0.853516,0
26430,0.226074,-0.258789,0.860352,0
26450,0.21875,-0.260254,0.852051,0
26470,0.208496,-0.26416,0.844238,0
26490,0.226074,-0.254395,0.847656,0
26510,0.227539,-0.242188,0.848145,0
26530,0.224609,-0.258789,0.857422,0
26550,0.230957,-0.26123,0.851074,0
26570,0.231445,-0.261719,0.844727,0
26590,0.23291,-0.241211,0.861816,0
26610,0.226074,-0.239258,0.859375,0
26630,0.233398,-0.240723,0.855957,0
26650,0.234375,-0.255371,0.864258,0
26670,0.231445,-0.24707,0.859863,0
26690,0.240234,-0.251953,0.854492,0
26710,0.23291,-0.262207,0.848145,0
26730,0.226562,-0.256836,0.841797,0
26750,0.243164,-0.244629,0.838379,0
26770,0.243652,-0.250488,0.847656,0
26790,0.228027,-0.256836,0.841797,0
26810,0.231445,-0.254395,0.831055,0
26830,0.242676,-0.243652,0.839355,0
26850,0.234863,-0.241699,0.838379,0
26870,0.218262,-0.245605,0.838867,0
26890,0.197754,-0.245117,0.849121,0
26910,0.190918,-0.241699,0.856445,0
26930,0.198242,-0.252441,0.841309,0
26950,0.209473,-0.248047,0.853516,0
26970,0.217773,-0.236328,0.852539,0
26990,0.211426,-0.24707,0.849121,0
27010,0.235352,-0.246582,0.85791,0
27030,0.238281,-0.238281,0.856445,0
27050,0.23584,-0.249023,0.856934,0
27070,0.238281,-0.244141,0.859863,0
27090,0.243164,-0.236816,0.861816,0
27110,0.239746,-0.234863,0.862305,0
27130,0.238281,-0.244629,0.856445,0
27150,0.229004,-0.248047,0.858887,0
27170,0.222168,-0.244629,0.853516,0
27190,0.212891,-0.255859,0.858398,0
27210,0.220703,-0.260742,0.856445,0
27230,0.218262,-0.26123,0.865723,0
27250,0.20459,-0.255371,0.847656,0
27270,0.207031,-0.272949,0.846191,0
27290,0.225586,-0.269531,0.827637,0
27310,0.226074,-0.261719,0.826172,0
27330,0.236816,-0.248047,0.818359,0
27350,0.241211,-0.242676,0.818359,0
27370,0.246094,-0.247559,0.816895,0
27390,0.249512,-0.247559,0.82666,0
27410,0.258301,-0.227051,0.838379,0
27430,0.249023,-0.233887,0.822266,0
27450,0.242676,-0.240234,0.82666,0
27470,0.245605,-0.24707,0.839844,0
27490,0.240723,-0.228516,0.858887,0
27510,0.22168,-0.246582,0.848145,0
27530,0.214844,-0.241699,0.845215,0
27550,0.224121,-0.242188,0.837891,0
27570,0.244629,-0.242676,0.850098,0
27590,0.239746,-0.236816,0.86084,0
27610,0.213379,-0.23877,0.861328,0
27630,0.19873,-0.246582,0.872559,0
27650,0.19043,-0.253418,0.869141,0
27670,0.191406,-0.250977,0.871582,0
27690,0.197754,-0.255859,0.876465,0
27710,0.205078,-0.26709,0.874512,0
27730,0.212402,-0.255859,0.862305,0
27750,0.239746,-0.263672,0.86084,0
27770,0.256836,-0.244629,0.859375,0
27790,0.243164,-0.255371,0.842285,0
27810,0.262207,-0.255371,0.845215,0
27830,0.306641,-0.21875,0.848633,0
27850,0.29248,-0.214355,0.855957,0
27870,0.264648,-0.219727,0.845703,0
27890,0.260742,-0.231445,0.846191,0
27910,0.256836,-0.215332,0.837402,0
27930,0.233887,-0.220215,0.827148,0
27950,0.241699,-0.217773,0.850586,0
27970,0.273438,-0.214844,0.846191,0
27990,0.257812,-0.233398,0.840332,0
28000,0.225586,-0.262207,0.829102,0
28040,0.248047,-0.242676,0.826172,0
28060,0.22168,-0.244629,0.839355,0
28080,0.190918,-0.276855,0.833008,0
28100,0.200684,-0.285645,0.823242,0
28120,0.207031,-0.285645,0.812012,0
28140,0.204102,-0.27832,0.826172,0
28160,0.219238,-0.279785,0.830566,0
28180,0.229004,-0.298828,0.835938,0
28200,0.238281,-0.289062,0.852539,0
28220,0.234863,-0.260742,0.849609,0
28240,0.212402,-0.277344,0.833496,0
28250,0.208984,-0.275391,0.843262,0
28270,0.222168,-0.271484,0.855469,0
28290,0.222656,-0.270508,0.852051,0
28330,0.243164,-0.270508,0.859863,0
28350,0.239746,-0.27832,0.851562,0
28370,0.224609,-0.272949,0.839355,0
28390,0.241211,-0.274902,0.839355,0
28420,0.256836,-0.25,0.845215,0
28440,0.227051,-0.253906,0.832031,0
28460,0.235352,-0.252441,0.833984,0
28480,0.254883,-0.236328,0.843262,0
28500,0.226562,-0.250488,0.848145,0
28520,0.228516,-0.263184,0.839355,0
28540,0.248047,-0.259766,0.846191,0
28560,0.250977,-0.255371,0.852051,0
28580,0.239746,-0.273438,0.846191,0
28600,0.233398,-0.263184,0.850098,0
28620,0.246582,-0.266602,0.840332,0
28640,0.238281,-0.273438,0.82373,0
28660,0.217285,-0.275391,0.831055,0
28680,0.217285,-0.268066,0.836426,0
28700,0.217773,-0.28125,0.83252,0
28720,0.20166,-0.291992,0.834473,0
28740,0.196777,-0.288086,0.836914,0
28760,0.208496,-0.286621,0.838867,0
28780,0.208008,-0.286621,0.836914,0
28800,0.20459,-0.288086,0.858398,0
28820,0.221191,-0.273926,0.873047,0
28840,0.222656,-0.28125,0.845215,0
28880,0.242676,-0.26416,0.859863,0
28900,0.214844,-0.254883,0.861816,0
28920,0.22998,-0.249512,0.833008,0
28940,0.300781,-0.224609,0.828613,0
28960,0.32959,-0.168457,0.851074,0
28980,0.269043,-0.169922,0.820312,0
29000,0.213867,-0.248535,0.792969,0
29020,0.230469,-0.266602,0.841797,0
29040,0.232422,-0.23291,0.876953,0
29060,0.15332,-0.301758,0.838867,0
29080,0.114258,-0.368164,0.834961,0
29100,0.145508,-0.317383,0.860352,0
29120,0.148438,-0.30957,0.844727,0
29140,0.129395,-0.363281,0.852539,0
29160,0.148926,-0.341309,0.874023,0
29180,0.182129,-0.292969,0.854492,0
29200,0.168945,-0.28418,0.835938,0
29220,0.182129,-0.261719,0.827148,0
29240,0.21875,-0.251953,0.815918,0
29260,0.245117,-0.259277,0.828125,0
29280,0.222168,-0.253906,0.839844,0
29300,0.226562,-0.240234,0.847656,0
29320,0.241211,-0.241699,0.841309,0
29340,0.23877,-0.262207,0.831543,0
29360,0.224121,-0.282227,0.836426,0
29380,0.217285,-0.283691,0.84082,0
29400,0.213379,-0.26709,0.848145,0
29420,0.208496,-0.275879,0.86377,0
29440,0.226074,-0.305176,0.872559,0
29460,0.23291,-0.304688,0.874512,0
29480,0.223633,-0.318359,0.864746,0
29500,0.208984,-0.309082,0.856934,0
29520,0.206543,-0.296875,0.847168,0
29540,0.206055,-0.292969,0.837402,0
29560,0.207031,-0.297852,0.839844,0
29580,0.209473,-0.289062,0.837891,0
29600,0.210938,-0.266602,0.83252,0
29620,0.199707,-0.269531,0.838379,0
29640,0.207031,-0.272461,0.838867,0
29660,0.214844,-0.279297,0.833496,0
29680,0.203613,-0.281738,0.82666,0
29700,0.198242,-0.274414,0.845215,0
29720,0.213379,-0.276855,0.844238,0
29740,0.21875,-0.282227,0.844727,0
29760,0.217773,-0.293945,0.849609,0
29780,0.226074,-0.291016,0.848145,0
29800,0.237793,-0.27832,0.84668,0
29820,0.210938,-0.273438,0.84668,0
29840,0.196289,-0.288086,0.844727,0
29860,0.19873,-0.286621,0.841797,0
29880,0.198242,-0.27832,0.842285,0
29900,0.189941,-0.288086,0.84082,0
29920,0.209961,-0.30127,0.840332,0
29940,0.194824,-0.30127,0.840332,0
29960,0.180176,-0.308594,0.833984,0
29980,0.179688,-0.287109,0.838867,0
30000,0.171387,-0.271484,0.838379,0
30020,0.157715,-0.256836,0.847656,0
30040,0.166016,-0.270996,0.835449,1000
30060,0.161133,-0.288574,0.842285,0
30080,0.159668,-0.285645,0.84082,0
30100,0.168457,-0.268555,0.842773,0
30120,0.195801,-0.26123,0.827637,0
30140,0.172852,-0.279785,0.825195,0
30160,0.161133,-0.281738,0.824219,0
30180,0.168457,-0.272949,0.832031,0
30190,0.197266,-0.274414,0.85498,0
30210,0.228027,-0.259277,0.849609,0
30230,0.226562,-0.261719,0.838379,0
30250,0.206055,-0.276855,0.844727,0
30270,0.217773,-0.256348,0.84375,0
30290,0.242676,-0.243652,0.855957,0
30310,0.246094,-0.239746,0.841797,0
30330,0.23877,-0.253418,0.837891,0
30350,0.255371,-0.262207,0.842773,0
30370,0.259277,-0.260742,0.824707,0
30390,0.261719,-0.240234,0.837891,0
30410,0.265625,-0.248535,0.809082,0
30430,0.28125,-0.241699,0.84375,0
30450,0.302734,-0.236328,0.830566,0
30470,0.303711,-0.230957,0.830566,0
30490,0.296875,-0.224121,0.844727,0
30510,0.29541,-0.23584,0.850586,0
30530,0.305664,-0.223145,0.842773,0
30550,0.301758,-0.202637,0.84375,0
30570,0.306152,-0.195801,0.857422,0
30590,0.313965,-0.193359,0.838867,0
30610,0.314941,-0.200684,0.834961,0
30630,0.32666,-0.192383,0.826172,0
30650,0.34668,-0.207031,0.825684,0
30670,0.358887,-0.208496,0.816895,0
30690,0.342773,-0.198242,0.807617,0
30710,0.365234,-0.199707,0.819824,0
30730,0.390137,-0.193848,0.819336,0
30750,0.373535,-0.186523,0.820312,0
30770,0.356934,-0.186523,0.818848,0
30790,0.346191,-0.188477,0.821289,0
30810,0.350586,-0.189453,0.829102,0
30830,0.345703,-0.189453,0.823242,0
30850,0.32959,-0.189453,0.820312,0
30870,0.339844,-0.187988,0.825195,0
30890,0.330078,-0.177246,0.82373,0
30910,0.345703,-0.190918,0.815918,0
30930,0.350098,-0.182617,0.815918,0
30950,0.340332,-0.17627,0.817383,0
30970,0.342773,-0.184082,0.823242,0
30990,0.374023,-0.191895,0.83252,0
31010,0.367676,-0.193359,0.827637,0
31030,0.34082,-0.194336,0.818359,0
31050,0.365234,-0.197266,0.821777,0
31070,0.384277,-0.192383,0.820801,0
31090,0.392578,-0.189453,0.810547,0
31110,0.34375,-0.188477,0.810059,0
31130,0.345703,-0.181152,0.807617,0
31150,0.38916,-0.180176,0.81543,0
31170,0.383301,-0.174805,0.810059,0
31190,0.358887,-0.168945,0.814941,0
31210,0.382812,-0.155762,0.813477,0
31230,0.401855,-0.164551,0.808105,0
31250,0.413574,-0.16748,0.812012,0
31270,0.400879,-0.148926,0.819336,0
31290,0.411133,-0.158203,0.810547,0
31310,0.383301,-0.179199,0.789062,0
31330,0.375488,-0.168945,0.781738,0
31350,0.393066,-0.158203,0.783203,0
31370,0.418945,-0.153809,0.775879,0
31390,0.43457,-0.164551,0.780762,0
31410,0.431152,-0.162598,0.783691,0
31430,0.439453,-0.17041,0.785156,0
31450,0.422852,-0.178711,0.783691,0
31470,0.436035,-0.169922,0.793457,0
31490,0.437012,-0.17627,0.783203,0
31510,0.418457,-0.193359,0.780762,0
31530,0.426758,-0.199707,0.788086,0
31550,0.422363,-0.190918,0.782715,0
31570,0.430176,-0.19043,0.773438,0
31590,0.420898,-0.178223,0.775391,0
31610,0.42627,-0.168457,0.790527,0
31630,0.446777,-0.150391,0.787598,0
31650,0.438477,-0.165039,0.768555,0
31670,0.44873,-0.175293,0.770508,0
31690,0.424316,-0.180176,0.774902,0
31710,0.418457,-0.177734,0.775879,0
31730,0.428711,-0.191406,0.772461,0
31750,0.44873,-0.185059,0.773926,0
31770,0.438477,-0.183594,0.77002,0
31790,0.442383,-0.196289,0.770508,0
31810,0.428223,-0.200684,0.771484,0
31830,0.434082,-0.178223,0.777344,0
31850,0.462891,-0.181641,0.774414,0
31870,0.44043,-0.190918,0.766602,0
31890,0.41748,-0.189941,0.771973,0
31910,0.434082,-0.171387,0.778809,0
31930,0.444336,-0.168457,0.778809,0
31950,0.436523,-0.17627,0.773438,0
31970,0.430664,-0.175781,0.771973,0
31990,0.428223,-0.168457,0.776367,0
32010,0.442383,-0.172852,0.769531,0
32030,0.448242,-0.167969,0.771973,0
32050,0.440918,-0.174805,0.765137,0
32070,0.435059,-0.176758,0.773926,0
32090,0.441406,-0.181152,0.778809,0
32110,0.435059,-0.169922,0.780273,0
32130,0.42334,-0.166016,0.774414,0
32150,0.430664,-0.167969,0.775879,0
32170,0.446289,-0.168457,0.781738,0
32190,0.435547,-0.161621,0.77832,0
32210,0.420898,-0.166992,0.773438,0
32230,0.429199,-0.159668,0.787598,0
32250,0.452637,-0.151855,0.787109,0
32270,0.444824,-0.158203,0.789062,0
32290,0.44043,-0.157715,0.77832,0
32310,0.436035,-0.153809,0.78125,0
32330,0.450195,-0.143555,0.791016,0
32350,0.456055,-0.145996,0.777344,0
32370,0.45166,-0.146484,0.768066,0
32390,0.459961,-0.14502,0.773926,0
32410,0.45459,-0.141113,0.779297,0
32430,0.449707,-0.139648,0.770508,0
32450,0.460449,-0.135742,0.78125,0
32470,0.457031,-0.133789,0.781738,0
32490,0.458008,-0.132324,0.779297,0
32510,0.455566,-0.127441,0.776855,0
32530,0.479004,-0.133789,0.78125,0
32550,0.479004,-0.133301,0.776367,0
32570,0.463867,-0.130859,0.782715,0
32590,0.452637,-0.116211,0.780762,0
32610,0.456055,-0.10498,0.785156,0
32630,0.466309,-0.121582,0.779297,0
32650,0.467285,-0.117676,0.779785,0
32670,0.467773,-0.112793,0.77002,0
32690,0.499023,-0.122559,0.780273,0
32710,0.474121,-0.120605,0.774902,0
32730,0.471191,-0.113281,0.777344,0
32750,0.5,-0.10791,0.777832,0
32770,0.503418,-0.119629,0.785645,0
32790,0.441895,-0.114746,0.77832,0
32810,0.432129,-0.09375,0.77832,0
32830,0.462402,-0.104004,0.782227,0
32850,0.501465,-0.109863,0.798828,0
32870,0.442871,-0.0922852,0.79541,0
32890,0.408691,-0.0727539,0.798828,0
32910,0.426758,-0.0786133,0.79834,0
32930,0.45752,-0.081543,0.794434,0
32950,0.496582,-0.0864258,0.796875,0
32970,0.46582,-0.0864258,0.776367,0
32990,0.443359,-0.0820312,0.777344,0
33010,0.452148,-0.0830078,0.779297,0
33030,0.474121,-0.102051,0.786621,0
33050,0.489746,-0.100098,0.802734,0
33070,0.407227,-0.104004,0.791016,0
33090,0.39209,-0.0927734,0.79541,0
33110,0.435547,-0.0947266,0.795898,0
33130,0.470703,-0.0639648,0.800293,0
33150,0.423828,-0.0629883,0.790527,0
33170,0.363281,-0.0654297,0.796387,0
33190,0.379883,-0.0673828,0.799805,0
33210,0.425293,-0.0917969,0.805664,0
33230,0.440918,-0.0888672,0.808594,0
33250,0.421875,-0.0878906,0.79834,0
33270,0.380859,-0.0820312,0.800781,0
33290,0.390625,-0.0854492,0.796875,0
33310,0.434082,-0.0961914,0.81543,0
33330,0.42627,-0.100098,0.808594,0
33350,0.354492,-0.102051,0.793457,0
33370,0.344238,-0.09375,0.816406,0
33390,0.399414,-0.0932617,0.822266,0
33410,0.412598,-0.10498,0.826172,0
33430,0.379883,-0.111328,0.812012,0
33450,0.375,-0.100586,0.814453,0
33470,0.379395,-0.10498,0.804199,0
33490,0.37793,-0.123535,0.812988,0
33510,0.384277,-0.131836,0.811523,0
33530,0.392578,-0.120117,0.816895,0
33550,0.382812,-0.118164,0.810547,0
33570,0.368164,-0.132324,0.797852,0
33580,0.379395,-0.123535,0.811523,0
33600,0.397461,-0.109375,0.81543,0
33620,0.387207,-0.117188,0.804199,0
33640,0.367676,-0.134766,0.806152,0
33660,0.370117,-0.117188,0.816406,0
33680,0.381836,-0.126953,0.816406,0
33700,0.357422,-0.121582,0.813477,0
33720,0.334961,-0.139648,0.809082,0
33740,0.382324,-0.139648,0.841797,0
33760,0.411133,-0.109375,0.855469,0
33780,0.385254,-0.107422,0.852539,0
33800,0.344238,-0.131836,0.841797,0
33820,0.353027,-0.12207,0.850586,0
33840,0.344238,-0.126465,0.851562,0
33860,0.293457,-0.15332,0.831543,0
33880,0.287109,-0.146484,0.852539,0
33900,0.331543,-0.123535,0.856445,0
33920,0.335449,-0.13916,0.853516,0
33940,0.309082,-0.146973,0.841309,0
33960,0.291504,-0.13916,0.841797,0
33980,0.300781,-0.15332,0.845215,0
34000,0.318359,-0.161621,0.845215,0
34020,0.311035,-0.17041,0.836426,0
34040,0.270508,-0.177734,0.831543,0
34060,0.267578,-0.187988,0.838379,0
34080,0.296387,-0.17627,0.846191,0
34100,0.299316,-0.184082,0.843262,0
34120,0.297852,-0.200195,0.836914,0
34140,0.291992,-0.182617,0.837891,0
34160,0.282715,-0.192383,0.835449,0
34180,0.27832,-0.207031,0.828613,0
34200,0.265137,-0.188477,0.841797,0
34220,0.250488,-0.191895,0.83252,0
34240,0.262207,-0.232422,0.837402,0
34260,0.290527,-0.229492,0.844238,0
34280,0.282227,-0.219238,0.836914,0
34300,0.268555,-0.222168,0.82666,0
34320,0.276367,-0.231934,0.840332,0
34340,0.260742,-0.212891,0.84668,0
34360,0.232422,-0.22998,0.830566,0
34380,0.269531,-0.248535,0.841797,0
34400,0.297852,-0.256348,0.841797,0
34420,0.276367,-0.25293,0.849609,0
34440,0.263672,-0.24707,0.842773,0
34460,0.286133,-0.258789,0.839355,0
34480,0.3125,-0.256348,0.840332,0
34500,0.291504,-0.251953,0.83252,0
34520,0.260742,-0.280762,0.82373,0
34540,0.275391,-0.271973,0.845703,0
34560,0.266602,-0.249512,0.819336,0
34580,0.230957,-0.277832,0.79834,0
34600,0.245117,-0.284668,0.815918,0
34620,0.236328,-0.27002,0.817383,0
34640,0.20166,-0.297852,0.793945,0
34660,0.21582,-0.313965,0.818848,0
34680,0.263184,-0.279785,0.832031,0
34700,0.262207,-0.290527,0.824219,0
34720,0.245117,-0.305176,0.816406,0
34740,0.272461,-0.311035,0.829102,0
34760,0.286621,-0.286621,0.834473,0
34780,0.262695,-0.306641,0.813965,0
34800,0.262207,-0.312988,0.826172,0
34820,0.27832,-0.304688,0.825684,0
34840,0.251465,-0.313477,0.812012,0
34860,0.231445,-0.34082,0.806641,0
34880,0.243652,-0.336914,0.811035,0
34900,0.236328,-0.327148,0.808105,0
34920,0.224121,-0.330566,0.810059,0
34940,0.23877,-0.334473,0.816895,0
34960,0.234863,-0.337402,0.808105,0
34980,0.223145,-0.361328,0.814941,0
35000,0.220703,-0.364746,0.794922,0
35020,0.233398,-0.358398,0.80127,0
35040,0.26123,-0.319336,0.820312,0
35060,0.237793,-0.328613,0.805176,0
35080,0.207031,-0.360352,0.791016,0
35100,0.226562,-0.37207,0.799316,0
35120,0.246582,-0.358398,0.80957,0
35140,0.224121,-0.354492,0.790527,0
35160,0.230469,-0.360352,0.810059,0
35180,0.254395,-0.356934,0.803223,0
35200,0.234375,-0.36084,0.794434,0
35220,0.220703,-0.381836,0.804199,0
35240,0.25,-0.374023,0.810059,0
35260,0.233398,-0.373535,0.791016,0
35280,0.234375,-0.38916,0.797363,0
35300,0.262695,-0.369141,0.800293,0
35320,0.231445,-0.369141,0.796875,0
35340,0.229492,-0.390625,0.783691,0
35360,0.276855,-0.40625,0.792969,0
35380,0.266602,-0.404297,0.779785,0
35400,0.236328,-0.399902,0.771484,0
35420,0.26416,-0.411621,0.782227,0
35440,0.280273,-0.393066,0.774902,0
35460,0.251953,-0.393555,0.77832,0
35480,0.236816,-0.408203,0.773926,0
35500,0.255859,-0.431641,0.771973,0
35520,0.269531,-0.408691,0.769043,0
35530,0.244629,-0.399414,0.760254,0
35550,0.25,-0.419434,0.763672,0
35570,0.291992,-0.422852,0.756836,0
35590,0.272949,-0.438477,0.749512,0
35610,0.265625,-0.430176,0.766602,0
35630,0.305176,-0.425781,0.772461,0
35650,0.34082,-0.424805,0.765625,0
35670,0.324707,-0.441895,0.748535,0
35690,0.320801,-0.452148,0.73584,0
35710,0.316406,-0.462891,0.734375,0
35730,0.322266,-0.44043,0.724121,0
35750,0.328613,-0.427734,0.706543,0
35770,0.329102,-0.428711,0.70459,0
35790,0.34375,-0.452637,0.710449,0
35810,0.368652,-0.437012,0.708496,0
35830,0.366699,-0.447754,0.702148,0
35850,0.354492,-0.458496,0.694824,0
35870,0.372559,-0.458496,0.696289,0
35890,0.394531,-0.435547,0.710449,0
35910,0.386719,-0.459961,0.697266,0
35930,0.37793,-0.475098,0.692871,0
35950,0.378906,-0.457031,0.704102,0
35970,0.390625,-0.442871,0.696777,0
35990,0.39502,-0.45459,0.684082,0
36010,0.40918,-0.442871,0.688477,0
36030,0.411133,-0.437988,0.671875,0
36050,0.410645,-0.453125,0.672852,0
36070,0.426758,-0.471191,0.664551,0
36090,0.446289,-0.444824,0.67627,0
36110,0.44043,-0.438477,0.679688,0
36130,0.423828,-0.453613,0.665039,0
36150,0.450195,-0.449707,0.681152,0
36170,0.468262,-0.432129,0.693359,0
36190,0.460449,-0.432129,0.684082,0
36210,0.443359,-0.437012,0.67041,0
36230,0.475586,-0.414062,0.67627,0
36250,0.476074,-0.42041,0.661621,0
36270,0.469238,-0.444824,0.662109,0
36290,0.509766,-0.452637,0.671387,0
36310,0.506348,-0.429199,0.669434,0
36330,0.51709,-0.405762,0.653809,0
36350,0.541504,-0.415039,0.64209,0
36370,0.538086,-0.423828,0.638184,0
36390,0.494629,-0.388184,0.636719,0
36410,0.51123,-0.375,0.621094,0
36430,0.563477,-0.420898,0.620117,0
36450,0.588867,-0.426758,0.61377,0
36470,0.527832,-0.367676,0.611816,0
36490,0.562988,-0.358398,0.618164,0
36510,0.591797,-0.380859,0.603027,0
36530,0.604492,-0.396973,0.60791,0
36550,0.611816,-0.374512,0.602539,0
36570,0.563965,-0.372559,0.598145,0
36590,0.586426,-0.380371,0.588867,0
36610,0.624023,-0.387207,0.601074,0
36630,0.591309,-0.369629,0.592773,0
36650,0.580078,-0.382324,0.581543,0
36670,0.591309,-0.389648,0.591797,0
36690,0.63916,-0.375977,0.605957,0
36710,0.614746,-0.35498,0.596191,0
36730,0.595215,-0.362305,0.575684,0
36750,0.606445,-0.37207,0.584473,0
36770,0.644043,-0.365234,0.586426,0
36790,0.633301,-0.334473,0.587402,0
36810,0.619629,-0.331055,0.568359,0
36830,0.630859,-0.333496,0.563477,0
36850,0.659668,-0.335938,0.571289,0
36870,0.679688,-0.309082,0.573242,0
36900,0.643066,-0.303223,0.543945,0
36920,0.689941,-0.301758,0.551758,0
36940,0.697266,-0.29834,0.547852,0
36970,0.6875,-0.290527,0.530273,0
36990,0.710938,-0.28418,0.542969,0
37010,0.727051,-0.280762,0.547363,0
37030,0.694824,-0.27002,0.533203,0
37050,0.67334,-0.264648,0.541504,0
37070,0.686523,-0.268066,0.526367,0
37090,0.695312,-0.254395,0.527832,0
37110,0.716797,-0.243164,0.528809,0
37130,0.708984,-0.241699,0.522949,0
37150,0.730957,-0.242188,0.506348,0
37170,0.741699,-0.23877,0.52002,0
37190,0.73877,-0.227539,0.507812,0
37210,0.743164,-0.236816,0.509766,0
37230,0.76123,-0.227051,0.500977,0
37250,0.748047,-0.224609,0.496582,0
37270,0.757324,-0.222168,0.486816,0
37290,0.774414,-0.203613,0.490723,0
37310,0.777344,-0.188965,0.476562,0
37330,0.816895,-0.200684,0.473145,0
37350,0.794922,-0.187012,0.480469,0
37370,0.785156,-0.177246,0.46582,0
37390,0.787109,-0.172363,0.462402,0
37410,0.805664,-0.175293,0.464844,0
37430,0.801758,-0.157227,0.456055,0
37450,0.79834,-0.145996,0.458496,0
37470,0.775391,-0.132324,0.447754,0
37490,0.76709,-0.13623,0.445801,0
37510,0.790039,-0.109375,0.444336,0
37530,0.807129,-0.090332,0.441895,0
37550,0.785645,-0.0771484,0.453125,0
37570,0.775391,-0.0810547,0.439941,0
37590,0.774902,-0.0737305,0.450684,0
37610,0.77832,-0.0742188,0.459961,0
37630,0.791504,-0.0712891,0.473633,0
37650,0.757812,-0.0541992,0.47168,0
37670,0.744629,-0.0263672,0.482422,0
37690,0.763184,-0.0322266,0.488281,0
37710,0.790039,-0.0405273,0.497559,0
37730,0.786621,-0.0249023,0.504883,0
37750,0.761719,-0.0107422,0.513672,0
37770,0.746582,-0.0258789,0.512695,0
37790,0.773926,-0.0239258,0.523926,0
37810,0.780273,-0.0117188,0.53418,0
37830,0.738281,0.00683594,0.525391,0
37850,0.738281,0.00390625,0.538574,0
37870,0.745117,0.00439453,0.533691,0
37890,0.770508,0.00146484,0.542969,0
37910,0.780273,0.00537109,0.541504,0
37930,0.726562,0.0151367,0.533691,0
37950,0.723145,0.0224609,0.547852,0
37970,0.746094,0.0151367,0.539551,0
37990,0.758789,0.0224609,0.544434,0
38010,0.750488,0.0288086,0.555664,0
38030,0.746094,0.0180664,0.560547,0
38050,0.729492,0.0195312,0.55957,0
38070,0.732422,0.0258789,0.578613,0
38090,0.740723,0.0473633,0.586426,0
38110,0.732422,0.0356445,0.576172,0
38130,0.751953,0.0297852,0.598145,0
38150,0.699707,0.050293,0.596191,0
38170,0.675293,0.0473633,0.600098,0
38180,0.683594,0.034668,0.600098,0
38200,0.699219,0.0439453,0.608887,0
38220,0.696289,0.0512695,0.615723,0
38240,0.635254,0.0454102,0.608398,0
38260,0.620117,0.0517578,0.608887,0
38280,0.652344,0.0629883,0.631348,0
38300,0.674316,0.0664062,0.646484,0
38320,0.659668,0.0649414,0.64209,0
38340,0.663574,0.0576172,0.640625,0
38360,0.65625,0.0683594,0.641113,0
38380,0.652832,0.0722656,0.654297,0
38400,0.664062,0.0732422,0.661133,0
38420,0.641113,0.065918,0.657227,0
38440,0.638184,0.0708008,0.660645,0
38460,0.634277,0.0756836,0.662109,0
38480,0.632812,0.0849609,0.668457,0
38500,0.647949,0.0673828,0.669434,0
38520,0.627441,0.0629883,0.661133,0
38540,0.615234,0.0688477,0.681641,0
38560,0.621094,0.0683594,0.689941,0
38580,0.608887,0.0683594,0.682617,0
38600,0.595215,0.0786133,0.692383,0
38620,0.625977,0.0585938,0.705078,0
38640,0.657715,0.0683594,0.714355,0
38660,0.632324,0.0712891,0.702148,0
38680,0.584961,0.0708008,0.704102,0
38700,0.595703,0.0620117,0.706543,0
38720,0.620605,0.0498047,0.71582,0
38740,0.594238,0.0249023,0.713379,0
38760,0.57666,0.027832,0.719727,0
38780,0.599121,0.0366211,0.729492,0
38800,0.603027,0.0126953,0.720215,0
38820,0.580078,-0.00244141,0.728516,0
38840,0.546387,0.0117188,0.731445,0
38860,0.548828,0.00878906,0.744629,0
38880,0.580566,0.00195312,0.754395,0
38890,0.533203,-0.0229492,0.720215,0
38910,0.472168,-0.0297852,0.73291,0
38930,0.501953,-0.015625,0.747559,0
38950,0.537598,-0.0327148,0.752441,0
38970,0.539551,-0.0415039,0.732422,0
38990,0.49707,-0.0810547,0.716309,0
39010,0.484863,-0.104492,0.729004,0
39030,0.495605,-0.0991211,0.747559,0
39050,0.499023,-0.0996094,0.740723,0
39070,0.444336,-0.125,0.710938,0
39090,0.409668,-0.136719,0.731934,0
39110,0.456543,-0.114258,0.768066,0
39130,0.487793,-0.125488,0.755371,0
39150,0.499512,-0.148926,0.766602,0
39170,0.515137,-0.136719,0.768555,0
39190,0.520996,-0.138672,0.754883,0
39210,0.519531,-0.157227,0.757812,0
39230,0.522949,-0.160645,0.740234,0
39250,0.510254,-0.165039,0.744629,0
39270,0.492676,-0.191895,0.743164,0
39290,0.482422,-0.181152,0.743652,0
39310,0.46582,-0.178711,0.746582,0
39330,0.462891,-0.186523,0.738281,0
39350,0.438477,-0.180664,0.741211,0
39370,0.421387,-0.188965,0.742676,0
39390,0.439453,-0.20752,0.750488,0
39410,0.468262,-0.205566,0.76123,0
39430,0.468262,-0.215332,0.749023,0
39450,0.475098,-0.220215,0.746094,0
39470,0.48584,-0.22998,0.757324,0
39490,0.481445,-0.222656,0.744629,0
39510,0.452148,-0.250977,0.731445,0
39530,0.438965,-0.268066,0.727539,0
39550,0.44043,-0.262695,0.733887,0
39570,0.427246,-0.275879,0.73584,0
39590,0.427734,-0.268555,0.743652,0
39610,0.427734,-0.269531,0.741699,0
39630,0.401855,-0.290039,0.72998,0
39650,0.40918,-0.303223,0.734863,0
39670,0.426758,-0.309082,0.741699,0
39690,0.404785,-0.305664,0.734863,0
39710,0.395508,-0.322754,0.737793,0
39730,0.430176,-0.327637,0.741211,0
39750,0.428223,-0.331543,0.738281,0
39770,0.400391,-0.357422,0.731445,0
39790,0.425781,-0.354004,0.74707,0
39810,0.42041,-0.327637,0.744141,0
39830,0.392578,-0.336426,0.728516,0
39850,0.406738,-0.362305,0.729004,0
39870,0.425293,-0.367188,0.729004,0
39890,0.409668,-0.356934,0.726562,0
39910,0.395996,-0.376953,0.716309,0
39930,0.421387,-0.380859,0.714844,0
39950,0.423828,-0.380371,0.711914,0
39970,0.405762,-0.37793,0.706055,0
39990,0.418945,-0.380859,0.710938,0
40010,0.442383,-0.377441,0.724609,0
40030,0.442383,-0.389648,0.712402,0
40050,0.413086,-0.400391,0.699219,0
40070,0.424805,-0.393555,0.713867,0
40090,0.437988,-0.391113,0.707031,0
40110,0.418457,-0.38916,0.692871,0
40130,0.398438,-0.414551,0.68457,0
40150,0.419434,-0.42334,0.697754,0
40170,0.442383,-0.411621,0.706055,0
40190,0.424805,-0.400879,0.683594,0
40210,0.40332,-0.418945,0.666992,0
40230,0.444336,-0.438477,0.681152,0
40250,0.477051,-0.443359,0.678711,0
40270,0.45166,-0.458496,0.656738,0
40290,0.456055,-0.450195,0.665039,0
40310,0.483887,-0.446289,0.657715,0
40330,0.462891,-0.456543,0.649414,0
40350,0.459961,-0.457031,0.643066,0
40370,0.472168,-0.464844,0.641113,0
40390,0.494629,-0.475586,0.624512,0
40410,0.511719,-0.480957,0.613281,0
40430,0.522949,-0.456543,0.616211,0
40450,0.525391,-0.46875,0.617676,0
40470,0.51709,-0.493652,0.597656,0
40490,0.524902,-0.506348,0.588867,0
40510,0.542969,-0.486328,0.582031,0
40530,0.541992,-0.47998,0.573242,0
40550,0.536133,-0.467285,0.568359,0
40570,0.545898,-0.479492,0.556152,0
40590,0.556641,-0.519043,0.541504,0
40610,0.534668,-0.524902,0.541992,0
40630,0.484863,-0.493652,0.52832,0
40650,0.506348,-0.482422,0.535645,0
40670,0.553223,-0.489746,0.548828,0
40690,0.560059,-0.494629,0.528809,0
40710,0.541016,-0.506836,0.532227,0
40730,0.562012,-0.487305,0.539062,0
40750,0.572754,-0.461914,0.520996,0
40770,0.58252,-0.46582,0.508789,0
40790,0.624512,-0.490723,0.506348,0
40810,0.650879,-0.493164,0.507812,0
40820,0.640625,-0.477051,0.484375,0
40840,0.631836,-0.48291,0.475586,0
40860,0.658203,-0.466309,0.467773,0
40880,0.677734,-0.451172,0.466797,0
40900,0.643555,-0.451172,0.445801,0
40920,0.654297,-0.450684,0.457031,0
40940,0.685059,-0.436035,0.46582,0
40960,0.692383,-0.429688,0.462891,0
40980,0.675293,-0.433594,0.453125,0
41000,0.682617,-0.399414,0.453613,0
41020,0.706543,-0.371582,0.462891,0
41040,0.724121,-0.371094,0.45459,0
41060,0.770508,-0.401367,0.458496,0
41080,0.72168,-0.372559,0.448242,0
41100,0.723633,-0.337891,0.443848,0
41120,0.798828,-0.330566,0.443848,0
41140,0.754883,-0.32959,0.416016,0
41160,0.754395,-0.287598,0.417969,0
41180,0.742188,-0.282227,0.386719,0
41200,0.777832,-0.310059,0.371582,0
41220,0.834473,-0.299316,0.375,0
41240,0.840332,-0.277344,0.382324,0
41260,0.816406,-0.268555,0.364258,0
41280,0.812988,-0.260742,0.349609,0
41300,0.827637,-0.249512,0.34375,0
41320,0.850586,-0.219238,0.347168,0
41340,0.858398,-0.230469,0.336914,0
41360,0.859375,-0.234863,0.335938,0
41380,0.854492,-0.219727,0.327637,0
41400,0.859375,-0.200684,0.329102,0
41420,0.874512,-0.205566,0.321777,0
41440,0.903809,-0.19873,0.331543,0
41460,0.84082,-0.180176,0.32959,0
41480,0.847168,-0.15625,0.330078,0
41500,0.856445,-0.162598,0.316406,0
41520,0.882812,-0.158203,0.321289,0
41540,0.884766,-0.143555,0.332031,0
41560,0.884277,-0.129883,0.324219,0
41580,0.883301,-0.127441,0.318848,0
41600,0.897461,-0.119141,0.3125,0
41620,0.894531,-0.100098,0.321289,0
41640,0.899902,-0.0742188,0.305664,0
41660,0.90332,-0.0605469,0.298828,0
41680,0.925293,-0.0493164,0.312012,0
41710,0.874512,-0.0458984,0.297852,0
41730,0.871094,-0.0249023,0.303223,0
41740,0.889648,-0.0229492,0.304199,0
41750,0.876465,-0.0224609,0.318359,0
41770,0.854004,-0.0146484,0.313477,0
41790,0.858887,0.00292969,0.32959,0
41810,0.868652,0.0170898,0.32666,0
41830,0.915527,0.0185547,0.351562,0
41850,0.921387,0.034668,0.367676,0
41870,0.882812,0.0341797,0.361816,0
41890,0.87207,0.0361328,0.378418,0
41910,0.891113,0.0585938,0.40918,0
41930,0.915527,0.0585938,0.419922,0
41950,0.853027,0.0620117,0.409668,0
41970,0.82373,0.0864258,0.433594,0
41990,0.810547,0.0922852,0.437988,0
42010,0.766113,0.0820312,0.441406,0
42030,0.763184,0.104004,0.469238,0
42050,0.787109,0.117676,0.485352,0
42070,0.814453,0.103027,0.490723,0
42090,0.765625,0.0996094,0.495605,0
42110,0.752441,0.116699,0.528809,0
42130,0.793457,0.0986328,0.539551,0
42150,0.802246,0.0888672,0.540527,0
42170,0.78418,0.100098,0.556152,0
42190,0.776855,0.102539,0.557129,0
42210,0.776367,0.100586,0.561035,0
42230,0.729004,0.081543,0.552734,0
42250,0.665527,0.0644531,0.560059,0
42270,0.690918,0.0878906,0.597168,0
42290,0.711426,0.0893555,0.604492,0
42310,0.710938,0.0673828,0.602051,0
42330,0.723145,0.0693359,0.619141,0
42350,0.739258,0.0629883,0.633301,0
42370,0.723633,0.0351562,0.630859,0
42390,0.70752,0.0253906,0.630859,0
42410,0.644043,0.0258789,0.641113,0
42430,0.624512,0.0380859,0.653809,0
42450,0.657715,0.0170898,0.66748,0
42470,0.676758,0.0112305,0.662109,0
42490,0.644043,-0.0112305,0.649902,0
42510,0.626465,-0.0268555,0.649902,0
42530,0.67627,-0.0107422,0.65625,0
42550,0.63623,-0.0361328,0.62793,0
42570,0.632812,-0.0825195,0.658691,0
42590,0.669922,-0.0844727,0.682617,0
42610,0.64502,-0.0942383,0.660645,0
42630,0.563477,-0.0996094,0.646973,0
42650,0.540527,-0.0805664,0.666504,0
42670,0.56543,-0.0947266,0.686523,0
42690,0.561523,-0.116699,0.675293,0
42710,0.543457,-0.12793,0.687012,0
42730,0.557617,-0.134277,0.702637,0
42750,0.527344,-0.108887,0.700195,0
42770,0.48877,-0.124512,0.70459,0
42790,0.503906,-0.164551,0.715332,0
42810,0.532227,-0.184082,0.731934,0
42830,0.520508,-0.192871,0.71875,0
42850,0.506348,-0.177734,0.714355,0
42870,0.509766,-0.197266,0.733887,0
42890,0.525391,-0.193848,0.726562,0
42910,0.489258,-0.238281,0.707031,0
42930,0.462891,-0.260254,0.69873,0
42950,0.474609,-0.25293,0.708496,0
42970,0.45459,-0.254395,0.69043,0
42990,0.456543,-0.277832,0.698242,0
43010,0.468262,-0.282227,0.6875,0
43030,0.468262,-0.313965,0.696777,0
43050,0.470703,-0.311035,0.700684,0
43070,0.460938,-0.312988,0.70459,0
43090,0.475586,-0.321289,0.701172,0
43110,0.462402,-0.338379,0.668945,0
43130,0.461914,-0.379883,0.673828,0
43150,0.480957,-0.382324,0.676758,0
43170,0.458008,-0.390137,0.65332,0
43190,0.492188,-0.406738,0.658691,0
43210,0.508789,-0.398438,0.655273,0
43230,0.495605,-0.442871,0.644531,0
43250,0.508301,-0.450684,0.642578,0
43270,0.513184,-0.447266,0.624023,0
43290,0.481934,-0.468262,0.617676,0
43310,0.499023,-0.492676,0.617188,0
43330,0.493164,-0.496094,0.610352,0
43350,0.430664,-0.52832,0.563477,0
43370,0.413574,-0.573242,0.557617,0
43390,0.415039,-0.5625,0.578613,0
43410,0.416992,-0.530273,0.554688,0
43430,0.385254,-0.546387,0.506348,0
43450,0.400879,-0.604492,0.521973,0
43470,0.491211,-0.554688,0.560547,0
43490,0.518066,-0.532227,0.547852,0
43510,0.499023,-0.560059,0.54541,0
43530,0.535645,-0.543457,0.546875,0
43550,0.580078,-0.518066,0.543457,0
43570,0.603027,-0.488281,0.545898,0
43590,0.612305,-0.46582,0.532715,0
43610,0.608398,-0.483887,0.501953,0
43630,0.645996,-0.517578,0.488281,0
43650,0.682129,-0.512695,0.486816,0
43670,0.658691,-0.489746,0.45752,0
43690,0.623535,-0.477051,0.452148,0
43710,0.677734,-0.448242,0.445312,0
43730,0.700684,-0.433105,0.418457,0
43750,0.712402,-0.430176,0.40918,0
43770,0.744141,-0.437988,0.408691,0
43790,0.741699,-0.448242,0.386719,0
43810,0.702637,-0.465332,0.356445,0
43830,0.701172,-0.47168,0.35791,0
43850,0.714355,-0.462891,0.349609,0
43870,0.694824,-0.459961,0.317871,0
43890,0.685547,-0.461426,0.308105,0
43910,0.706543,-0.45459,0.306152,0
43930,0.716309,-0.476074,0.287598,0
43950,0.731934,-0.474609,0.290039,0
43970,0.769043,-0.475586,0.287109,0
43990,0.795898,-0.450195,0.283203,0
44010,0.776367,-0.432129,0.270508,0
44030,0.794922,-0.433594,0.250488,0
44050,0.851562,-0.428223,0.251465,0
44070,0.86377,-0.377441,0.250977,0
44090,0.838867,-0.387695,0.23584,0
44110,0.884277,-0.385742,0.236328,0
44130,0.902344,-0.361328,0.229004,0
44150,0.890137,-0.344238,0.225586,0
44170,0.857422,-0.355957,0.216797,0
44190,0.893555,-0.326172,0.205078,0
44200,0.913086,-0.304688,0.197266,0
44220,0.893066,-0.29248,0.191895,1001
44240,0.896973,-0.297852,0.176758,0
44260,0.917969,-0.289551,0.176758,0
44280,0.906738,-0.294922,0.171875,0
44300,0.907715,-0.286133,0.157227,0
44320,0.919922,-0.274902,0.166504,0
44340,0.915527,-0.278809,0.156738,0
44360,0.902832,-0.280273,0.154785,0
44380,0.897461,-0.282227,0.146973,0
44400,0.906738,-0.284668,0.151367,0
44420,0.902832,-0.290039,0.15625,0
44440,0.887207,-0.295898,0.154785,0
44460,0.883301,-0.288574,0.152832,0
44480,0.885254,-0.289551,0.157227,0
44500,0.879883,-0.290527,0.154785,0
44520,0.868164,-0.299805,0.163574,0
44540,0.865723,-0.304688,0.165527,0
44560,0.859375,-0.294922,0.163574,0
44580,0.863281,-0.302246,0.164062,0
44600,0.868164,-0.300781,0.170898,0
44620,0.865234,-0.30957,0.172363,0
44640,0.862305,-0.305664,0.176758,0
44660,0.853516,-0.307617,0.188477,0
44680,0.815918,-0.31543,0.185547,0
44700,0.781738,-0.312988,0.191406,0
44720,0.757812,-0.289062,0.208984,0
44740,0.73877,-0.291992,0.226074,0
44760,0.616699,-0.307617,0.199707,0
44780,0.617676,-0.288574,0.22998,0
44800,0.633789,-0.237793,0.272461,0
44820,0.606445,-0.228027,0.26123,0
44840,0.598633,-0.28418,0.236816,0
44860,0.706055,-0.317383,0.295898,0
44880,0.725098,-0.236328,0.358398,0
44900,0.652832,-0.239746,0.378418,0
44920,0.661621,-0.348145,0.379883,0
44940,0.796387,-0.36084,0.512207,0
44960,0.859863,-0.30957,0.602051,0
44980,0.705078,-0.348145,0.589844,0
45000,0.603516,-0.429688,0.637695,0
45020,0.660156,-0.439941,0.76123,0
45040,0.711426,-0.461426,0.802246,0
45060,0.55957,-0.497559,0.777344,0
45080,0.39209,-0.527832,0.83252,0
45100,0.379883,-0.494629,0.905273,0
45120,0.406738,-0.479004,0.900391,0
45140,0.341797,-0.549805,0.854492,0
45160,0.259277,-0.634277,0.854492,0
45180,0.230469,-0.617676,0.859863,0
45200,0.210449,-0.581055,0.833984,0
45220,0.169434,-0.570801,0.809082,0
45240,0.124023,-0.570801,0.785156,0
45260,0.0932617,-0.562988,0.788574,0
45280,0.113281,-0.570801,0.782227,0
45300,0.140625,-0.583496,0.772949,1000
45320,0.136719,-0.558594,0.776855,0
45340,0.129395,-0.519531,0.759277,0
45360,0.150879,-0.508789,0.737793,0
45380,0.180664,-0.500488,0.751465,0
45400,0.19043,-0.496582,0.749512,0
45420,0.188965,-0.496094,0.757324,0
45440,0.196289,-0.499512,0.765625,0
45460,0.220215,-0.497559,0.762695,0
45480,0.227051,-0.490234,0.763672,0
45500,0.209961,-0.481934,0.770996,0
45520,0.213867,-0.49707,0.769531,0
45540,0.212891,-0.493164,0.763672,0
45560,0.200684,-0.48291,0.756836,0
45580,0.186035,-0.469238,0.755859,0
45600,0.188477,-0.461914,0.771484,0
45620,0.208008,-0.476074,0.756836,0
45640,0.213867,-0.492188,0.760254,0
45660,0.209961,-0.456055,0.770996,0
45680,0.203613,-0.430664,0.788574,0
45700,0.221191,-0.448242,0.774414,0
45720,0.229492,-0.478027,0.777344,0
45740,0.237793,-0.458496,0.766113,0
45760,0.217773,-0.459961,0.762207,0
45780,0.185547,-0.466797,0.758789,0
45800,0.17041,-0.462402,0.769043,0
45820,0.160645,-0.458496,0.764648,0
45840,0.131348,-0.471191,0.764648,0
45860,0.137207,-0.473633,0.760742,0
45880,0.172363,-0.464355,0.787598,0
45900,0.20459,-0.431152,0.783203,0
45920,0.211426,-0.436523,0.775391,0
45940,0.216309,-0.445312,0.775391,0
45960,0.235352,-0.436523,0.763184,0
45980,0.252441,-0.415527,0.762695,0
46000,0.251953,-0.427734,0.756348,0
46020,0.236816,-0.450195,0.742676,0
46040,0.25,-0.439453,0.766602,0
46060,0.268066,-0.429199,0.758301,0
46080,0.268555,-0.429199,0.74707,0
46100,0.293945,-0.434082,0.758301,0
46120,0.320312,-0.405762,0.766602,0
46130,0.318359,-0.40625,0.759766,0
46150,0.33252,-0.401855,0.76416,0
46170,0.325684,-0.395508,0.760254,0
46190,0.321777,-0.373047,0.768555,0
46210,0.31543,-0.378906,0.764648,0
46230,0.310059,-0.388672,0.755371,0
46250,0.317871,-0.367188,0.75293,0
46270,0.327637,-0.351074,0.749512,0
46290,0.33252,-0.362305,0.753418,0
46310,0.335938,-0.374512,0.744629,0
46330,0.335449,-0.381348,0.75,0
46350,0.347168,-0.348145,0.759277,0
46370,0.362793,-0.328613,0.75293,0
46390,0.396973,-0.35791,0.745117,0
46410,0.39209,-0.355469,0.758301,0
46430,0.377441,-0.327148,0.755371,0
46450,0.396484,-0.329102,0.741699,0
46470,0.441895,-0.303223,0.759277,0
46490,0.456055,-0.287109,0.757812,0
46510,0.435547,-0.273438,0.749023,0
46530,0.39502,-0.283203,0.742676,0
46550,0.409668,-0.296387,0.730469,0
46570,0.471191,-0.315918,0.745605,0
46590,0.46875,-0.302246,0.748535,0
46610,0.464355,-0.286133,0.765625,0
46630,0.449707,-0.267578,0.761719,0
46650,0.460938,-0.289551,0.748535,0
46670,0.472656,-0.291992,0.758301,0
46690,0.450195,-0.252441,0.766113,0
46710,0.459961,-0.240723,0.759766,0
46730,0.45752,-0.251465,0.755859,0
46750,0.446777,-0.244141,0.754883,0
46770,0.460938,-0.245605,0.755371,0
46790,0.463379,-0.236328,0.742188,0
46810,0.475586,-0.216797,0.742676,0
46830,0.492188,-0.200195,0.729492,0
46850,0.495117,-0.20166,0.722656,0
46870,0.489258,-0.197266,0.71875,0
46890,0.504395,-0.182129,0.730469,0
46910,0.51416,-0.197754,0.735352,0
46930,0.500488,-0.225098,0.717773,0
46950,0.526855,-0.177246,0.740234,0
46970,0.560059,-0.151855,0.72998,0
46990,0.552734,-0.17334,0.706543,0
47010,0.535645,-0.18457,0.708008,0
47030,0.569824,-0.149414,0.725586,0
47050,0.59668,-0.140625,0.708008,0
47070,0.585938,-0.153809,0.692383,0
47090,0.567871,-0.158203,0.677246,0
47110,0.595215,-0.147949,0.692871,0
47130,0.606445,-0.13916,0.689453,0
47150,0.60498,-0.143555,0.672852,0
47170,0.597656,-0.141602,0.665527,0
47190,0.611816,-0.140625,0.675781,0
47210,0.619629,-0.125977,0.670898,0
47230,0.595215,-0.123047,0.667969,0
47250,0.602539,-0.109375,0.670898,0
47270,0.612305,-0.0922852,0.67627,0
47290,0.596191,-0.107422,0.668457,0
47310,0.600098,-0.100098,0.683594,0
47330,0.600586,-0.0507812,0.679688,0
47350,0.61377,-0.065918,0.684082,0
47370,0.618652,-0.0854492,0.676758,0
47390,0.624023,-0.0693359,0.696289,0
47410,0.624512,-0.0532227,0.702637,0
47430,0.622559,-0.0595703,0.70752,0
47450,0.598633,-0.0561523,0.704102,0
47470,0.598633,-0.0522461,0.70752,0
47490,0.619141,-0.0405273,0.71875,0
47510,0.59375,-0.0356445,0.713379,0
47530,0.629395,-0.0283203,0.735352,0
47550,0.550293,-0.0458984,0.726562,0
47570,0.526855,-0.00878906,0.72168,0
47590,0.54834,0.00878906,0.719727,0
47610,0.588867,0.0214844,0.72998,0
47630,0.569336,0.00878906,0.736816,0
47650,0.535645,0.0180664,0.733398,0
47670,0.538574,0.00878906,0.73291,0
47690,0.57666,0.00634766,0.737793,0
47710,0.576172,0.0239258,0.739258,0
47730,0.532227,0.0483398,0.731934,0
47750,0.510254,0.0454102,0.728516,0
47770,0.544434,0.0307617,0.740234,0
47790,0.533203,0.0400391,0.757324,0
47810,0.535156,0.0454102,0.766113,0
47830,0.529785,0.0244141,0.752441,0
47850,0.54248,0.0307617,0.762207,0
47870,0.550293,0.0537109,0.767578,0
47890,0.47998,0.0664062,0.757812,0
47910,0.465332,0.0732422,0.765137,0
47930,0.499512,0.0654297,0.779297,0
47950,0.553711,0.0375977,0.788574,0
47970,0.53125,0.0493164,0.775879,0
47990,0.453125,0.0869141,0.78125,0
48010,0.434082,0.0712891,0.798828,0
48030,0.492188,0.0229492,0.770996,0
48050,0.543945,0.00537109,0.758301,0
48070,0.531738,0.0463867,0.759766,0
48090,0.501465,0.0463867,0.768555,0
48110,0.523926,0.0195312,0.775879,0
48130,0.536133,0.0239258,0.791016,0
48150,0.486328,0.0288086,0.785156,0
48170,0.422363,0.00830078,0.770508,0
48190,0.425293,0.00537109,0.80127,0
48210,0.435547,-0.00439453,0.80127,0
48230,0.415527,-0.0136719,0.790039,0
48250,0.397461,-0.0180664,0.81543,0
48270,0.403809,-0.019043,0.841797,0
48290,0.39502,-0.0410156,0.824707,0
48310,0.367188,-0.0498047,0.807617,0
48330,0.365723,-0.0419922,0.826172,0
48350,0.373047,-0.00976562,0.839844,0
48370,0.371582,-0.0429688,0.824707,0
48390,0.383301,-0.0869141,0.814941,0
48410,0.388184,-0.0859375,0.830078,0
48430,0.350586,-0.0917969,0.824707,0
48450,0.332031,-0.105957,0.805664,0
48470,0.314941,-0.0771484,0.814941,0
48490,0.303711,-0.0800781,0.819336,0
48510,0.317871,-0.100586,0.83252,0
48530,0.349121,-0.116211,0.831055,0
48550,0.369629,-0.114258,0.848633,0
48570,0.344727,-0.0952148,0.856934,0
48590,0.28125,-0.111328,0.799316,0
48610,0.303223,-0.158691,0.816406,0
48630,0.364746,-0.120605,0.811035,0
48650,0.320312,-0.10791,0.799805,0
48670,0.24707,-0.147461,0.819824,0
48690,0.278809,-0.15625,0.833984,0
48710,0.295898,-0.165039,0.827637,0
48730,0.252441,-0.185059,0.82666,0
48750,0.258301,-0.17334,0.845215,0
48770,0.282227,-0.160156,0.853027,0
48790,0.269043,-0.172363,0.827637,0
48810,0.261719,-0.183594,0.837891,0
48830,0.251465,-0.179688,0.851562,0
48850,0.22998,-0.188965,0.826172,0
48870,0.211426,-0.208984,0.817871,0
48890,0.241211,-0.206543,0.842773,0
48910,0.290527,-0.199219,0.858398,0
48930,0.258301,-0.200684,0.836426,0
48950,0.23291,-0.23584,0.834473,0
48970,0.273438,-0.232422,0.84082,0
48990,0.280273,-0.213379,0.842285,0
49010,0.266113,-0.233887,0.837402,0
49030,0.272949,-0.258301,0.829102,0
49050,0.271484,-0.269043,0.827637,0
49070,0.256348,-0.253418,0.833984,0
49090,0.232422,-0.25293,0.814941,0
49110,0.223145,-0.285156,0.804688,0
49130,0.254395,-0.282227,0.802734,0
49150,0.283691,-0.277344,0.804688,0
49170,0.283691,-0.318359,0.804688,0
49190,0.251953,-0.324219,0.801758,0
49210,0.223145,-0.32959,0.804199,0
49230,0.251465,-0.324707,0.819336,0
49250,0.292969,-0.3125,0.805664,0
49270,0.275879,-0.315918,0.790039,0
49290,0.249512,-0.303711,0.792969,0
49310,0.263672,-0.305664,0.79248,0
49330,0.30957,-0.328125,0.794434,0
49350,0.330078,-0.326172,0.807129,0
49370,0.32373,-0.328125,0.791016,0
49390,0.324219,-0.34082,0.779297,0
49410,0.32666,-0.336426,0.770996,0
49430,0.352051,-0.344727,0.76416,0
49450,0.383789,-0.355957,0.769531,0
49470,0.399414,-0.344238,0.759277,0
49490,0.389648,-0.328125,0.755371,0
49510,0.38623,-0.341797,0.736328,0
49530,0.402344,-0.347656,0.741699,0
49540,0.414062,-0.359375,0.739746,0
49560,0.42041,-0.348145,0.723145,0
49580,0.425293,-0.338379,0.71875,0
49600,0.433594,-0.355469,0.699219,0
49620,0.452148,-0.360352,0.699707,0
49640,0.458984,-0.34668,0.710938,0
49660,0.468262,-0.36084,0.706055,0
49680,0.480957,-0.376953,0.705566,0
49700,0.491211,-0.375,0.698242,0
49720,0.472656,-0.384766,0.692871,0
49740,0.46582,-0.40625,0.695312,0
49760,0.474121,-0.410156,0.700195,0
49780,0.486816,-0.398926,0.693848,0
49800,0.456055,-0.399902,0.672852,0
49820,0.435547,-0.394043,0.661621,0
49840,0.43457,-0.39209,0.672363,0
49860,0.481445,-0.380859,0.67334,0
49880,0.515137,-0.393066,0.663574,0
49900,0.501465,-0.410645,0.635254,0
49920,0.515137,-0.400391,0.643066,0
49940,0.57666,-0.364258,0.649902,0
49960,0.60498,-0.377441,0.627441,0
49980,0.558105,-0.399902,0.61084,0
50000,0.588379,-0.39209,0.618164,0
50020,0.628418,-0.375,0.62793,0
50040,0.585449,-0.36377,0.582031,0
50060,0.577637,-0.344727,0.565918,0
50080,0.594238,-0.353516,0.571777,0
50100,0.600098,-0.339844,0.560059,0
50120,0.584473,-0.324707,0.552734,0
50140,0.592773,-0.35498,0.530762,0
50160,0.708496,-0.382812,0.556152,0
50180,0.676758,-0.351562,0.563477,0
50200,0.631348,-0.322754,0.550293,0
50220,0.663086,-0.332031,0.541992,0
50240,0.693359,-0.328613,0.558105,0
50260,0.693359,-0.304199,0.548828,0
50280,0.679199,-0.29248,0.537598,0
50300,0.703613,-0.29834,0.523438,0
50320,0.70459,-0.314453,0.530273,0
50340,0.728516,-0.269531,0.534668,0
50360,0.715332,-0.255859,0.517578,0
50380,0.759766,-0.281738,0.500977,0
50400,0.731445,-0.290527,0.498047,0
50420,0.762695,-0.264648,0.511719,0
50440,0.744629,-0.242676,0.50293,0
50460,0.766113,-0.246094,0.483887,0
50480,0.756836,-0.249512,0.479004,0
50500,0.760254,-0.239258,0.470703,0
50520,0.748535,-0.222168,0.470703,0
50540,0.767578,-0.196289,0.469727,0
50560,0.751953,-0.206543,0.45752,0
50580,0.768066,-0.207031,0.453125,0
50600,0.78418,-0.178223,0.463867,0
50620,0.80127,-0.163574,0.449707,0
50640,0.791016,-0.15918,0.435059,0
50660,0.798828,-0.174805,0.428223,0
50680,0.820312,-0.137695,0.416016,0
50700,0.83252,-0.116699,0.421875,0
50720,0.830566,-0.118164,0.398438,0
50740,0.859375,-0.124023,0.398438,0
50760,0.90332,-0.118652,0.403809,0
50780,0.87793,-0.0952148,0.40918,0
50800,0.828613,-0.103027,0.384277,0
50820,0.830566,-0.0908203,0.408691,0
50840,0.818359,-0.0722656,0.400879,0
50860,0.813477,-0.0483398,0.381836,0
50880,0.82959,-0.0390625,0.377441,0
50900,0.84375,-0.0283203,0.369629,0
50920,0.836914,-0.0175781,0.370117,0
50940,0.806641,-0.0214844,0.368652,0
50960,0.827148,-0.00585938,0.375977,0
50980,0.837402,-0.00146484,0.381348,0
51000,0.845215,0.00732422,0.385254,0
51020,0.840332,0.0200195,0.384766,0
51040,0.852539,0.0439453,0.393555,0
51060,0.89502,0.0483398,0.395508,0
51080,0.90332,0.0390625,0.416992,0
51100,0.8125,0.0439453,0.398926,0
51120,0.792969,0.0644531,0.412109,0
51140,0.815918,0.0512695,0.43457,0
51160,0.846191,0.0771484,0.442871,0
51180,0.855957,0.0678711,0.450195,0
51200,0.854492,0.0742188,0.455078,0
51220,0.837891,0.0883789,0.465332,0
51240,0.803223,0.10791,0.479492,0
51260,0.766113,0.102051,0.494141,0
51280,0.765137,0.10791,0.506836,0
51300,0.736816,0.103027,0.520508,0
51320,0.763184,0.129395,0.54541,0
51340,0.775879,0.128906,0.548828,0
51360,0.757812,0.132812,0.555664,0
51380,0.674805,0.135254,0.57959,0
51400,0.6875,0.155762,0.599121,0
51420,0.703125,0.125488,0.602051,0
51440,0.721191,0.135742,0.598633,0
51460,0.701172,0.164551,0.592285,0
51480,0.676758,0.148926,0.575684,0
51500,0.692871,0.107422,0.57666,0
51510,0.704102,0.109863,0.570312,0
51530,0.687012,0.133301,0.585449,0
51550,0.640137,0.143555,0.591797,0
51570,0.662598,0.126465,0.611328,0
51590,0.703125,0.115234,0.621094,0
51610,0.731445,0.128906,0.60498,0
51630,0.731445,0.140625,0.611328,0
51650,0.688965,0.145996,0.612793,0
51670,0.666992,0.135254,0.629883,0
51690,0.673828,0.118652,0.630859,0
51710,0.672852,0.130859,0.622559,0
51730,0.597168,0.156738,0.605469,0
51750,0.525879,0.147949,0.632812,0
51770,0.591797,0.118164,0.652832,0
51790,0.678711,0.140137,0.639648,0
51810,0.667969,0.160645,0.634277,0
51830,0.637207,0.149902,0.649414,0
51850,0.667969,0.132324,0.657227,0
51870,0.677246,0.112793,0.665039,0
51890,0.658691,0.10791,0.665039,0
51910,0.642578,0.106445,0.65625,0
51930,0.643555,0.112793,0.659668,0
51950,0.637695,0.116211,0.658203,0
51970,0.654785,0.118652,0.669922,0
51990,0.658203,0.112305,0.680176,0
52010,0.631836,0.11377,0.667969,0
52030,0.604492,0.0942383,0.686035,0
52050,0.611816,0.0947266,0.693848,0
52070,0.589355,0.111816,0.663574,0
52090,0.498047,0.116211,0.660645,0
52110,0.460449,0.100586,0.664062,0
52130,0.522949,0.0913086,0.706055,0
52150,0.563477,0.0869141,0.727539,0
52170,0.549805,0.0791016,0.725586,0
52190,0.544922,0.0693359,0.735352,0
52210,0.536621,0.0883789,0.740234,0
52230,0.533203,0.0932617,0.727051,0
52250,0.549316,0.105957,0.722656,0
52270,0.533691,0.103027,0.724609,0
52290,0.48584,0.0722656,0.725098,0
52310,0.479004,0.0449219,0.742188,0
52330,0.525391,0.0664062,0.745605,0
52350,0.52002,0.0634766,0.732422,0
52370,0.491211,0.0615234,0.737793,0
52390,0.490723,0.0561523,0.750488,0
52410,0.498047,0.0561523,0.744629,0
52430,0.485352,0.0649414,0.747559,0
52450,0.471191,0.0458984,0.763184,0
52470,0.467285,0.0332031,0.761719,0
52490,0.426758,0.0419922,0.762207,0
52510,0.459473,0.0297852,0.761719,0
52530,0.507812,0.0239258,0.794434,0
52550,0.50293,0.0195312,0.778809,0
52570,0.436523,0.000488281,0.750977,0
52590,0.405273,-0.0161133,0.776855,0
52610,0.463867,-0.00878906,0.791016,0
52630,0.490723,-0.00244141,0.776367,0
52650,0.451172,-0.00634766,0.783691,0
52670,0.422852,-0.0249023,0.787598,0
52690,0.467773,-0.0385742,0.79541,0
52710,0.458008,-0.0688477,0.797852,0
52730,0.420898,-0.0683594,0.785645,0
52750,0.441406,-0.0717773,0.785645,0
52770,0.460449,-0.0805664,0.78418,0
52790,0.429199,-0.0869141,0.76123,0
52810,0.45166,-0.09375,0.786621,0
52830,0.475586,-0.0688477,0.788574,0
52850,0.448242,-0.111816,0.772949,0
52870,0.443359,-0.13916,0.768066,0
52890,0.469238,-0.152344,0.783691,0
52910,0.469727,-0.137695,0.770996,0
52930,0.423828,-0.161133,0.737305,0
52950,0.405273,-0.165039,0.730957,0
52970,0.445801,-0.15918,0.751953,0
52990,0.464844,-0.181641,0.755859,0
53010,0.466797,-0.189453,0.745605,0
53030,0.475098,-0.173828,0.75293,0
53050,0.488281,-0.154297,0.755371,0
53070,0.491699,-0.181152,0.753906,0
53090,0.511719,-0.226562,0.746582,0
53110,0.517578,-0.21875,0.741699,0
53130,0.498535,-0.212891,0.744629,0
53150,0.492188,-0.210449,0.734863,0
53170,0.504395,-0.231445,0.72168,0
53190,0.507812,-0.246094,0.712891,0
53210,0.507324,-0.244141,0.720703,0
53230,0.487793,-0.26123,0.700195,0
53250,0.480469,-0.293945,0.703613,0
53270,0.505371,-0.284668,0.709473,0
53290,0.520996,-0.26123,0.680664,0
53310,0.503906,-0.285156,0.67041,0
53330,0.525879,-0.304199,0.684082,0
53350,0.554199,-0.29248,0.690918,0
53370,0.557617,-0.306641,0.664551,0
53390,0.555664,-0.329102,0.652344,0
53410,0.577148,-0.317383,0.659668,0
53430,0.569824,-0.326172,0.643066,0
53450,0.551758,-0.332031,0.633789,0
53470,0.551758,-0.329102,0.631836,0
53490,0.567871,-0.32959,0.626953,0
53510,0.558105,-0.328125,0.62207,0
53530,0.568359,-0.332031,0.609863,0
53550,0.591797,-0.34375,0.619141,0
53570,0.593262,-0.359863,0.601562,0
53590,0.566406,-0.358887,0.592773,0
53610,0.566895,-0.358887,0.592773,0
53630,0.607422,-0.355957,0.598145,0
53650,0.636719,-0.34082,0.580566,0
53670,0.596191,-0.360352,0.580566,0
53690,0.59668,-0.361328,0.569336,0
53710,0.629883,-0.361816,0.567871,0
53730,0.646484,-0.350586,0.541992,0
53750,0.616211,-0.370117,0.527344,0
53770,0.636719,-0.378906,0.521973,0
53790,0.677246,-0.378418,0.525879,0
53810,0.679688,-0.382324,0.516113,0
53830,0.680664,-0.387695,0.511719,0
53850,0.695312,-0.366211,0.506348,0
53870,0.709961,-0.358398,0.488281,0
53890,0.695801,-0.364258,0.466797,0
53910,0.692383,-0.363281,0.469727,0
53930,0.722168,-0.341797,0.469727,0
53950,0.700195,-0.352539,0.452148,0
53970,0.679688,-0.353516,0.462891,0
53990,0.720215,-0.344727,0.465332,0
54010,0.749023,-0.328125,0.45752,0
54030,0.737793,-0.34082,0.442871,0
54050,0.73877,-0.323242,0.44043,0
54070,0.754883,-0.318848,0.441406,0
54090,0.755371,-0.317871,0.410645,0
54110,0.796875,-0.333984,0.415039,0
54130,0.78125,-0.30957,0.403809,0
54150,0.746094,-0.298828,0.392578,0
54170,0.780762,-0.293945,0.380859,0
54190,0.803711,-0.297363,0.371582,0
54210,0.818848,-0.282227,0.373535,0
54230,0.82959,-0.270996,0.366211,0
54250,0.864258,-0.273438,0.358398,0
54270,0.820312,-0.275879,0.35498,0
54290,0.835938,-0.273438,0.335449,0
54310,0.893555,-0.254395,0.351562,0
54330,0.870605,-0.249512,0.336914,0
54350,0.85791,-0.232422,0.322754,0
54370,0.821289,-0.231445,0.311523,0
54390,0.847656,-0.222168,0.305664,0
54410,0.85791,-0.208496,0.29248,0
54430,0.879395,-0.187012,0.272461,0
54450,0.893066,-0.187988,0.267578,0
54470,0.899414,-0.191406,0.256836,0
54490,0.901367,-0.193359,0.238281,0
54510,0.913574,-0.179199,0.233887,0
54530,0.930176,-0.171387,0.227051,0
54550,0.905273,-0.174805,0.219727,0
54570,0.909668,-0.152344,0.219727,0
54590,0.893555,-0.131836,0.208008,0
54610,0.890137,-0.124512,0.20459,0
54630,0.911133,-0.129883,0.195312,0
54650,0.918945,-0.126953,0.196777,0
54670,0.914551,-0.119141,0.183594,0
54690,0.921387,-0.111816,0.187988,0
54710,0.933594,-0.107422,0.196777,0
54730,0.941895,-0.090332,0.206055,0
54750,0.939941,-0.0717773,0.196777,0
54770,0.935059,-0.078125,0.181641,0
54790,0.930176,-0.0615234,0.187012,0
54810,0.91748,-0.0498047,0.177734,0
54830,0.913574,-0.0419922,0.182129,0
54850,0.927734,-0.0395508,0.178223,0
54870,0.922852,-0.0200195,0.175781,0
54880,0.922852,-0.00195312,0.180664,0
54900,0.921875,0.00683594,0.183105,0
54920,0.922852,0.0126953,0.181152,0
54940,0.932129,0.0249023,0.1875,0
54960,0.929199,0.0268555,0.188477,0
54980,0.915039,0.034668,0.191406,0
55000,0.925293,0.0620117,0.205566,0
55020,0.922852,0.0771484,0.203613,0
55040,0.906738,0.0737305,0.212402,0
55060,0.908691,0.0766602,0.225098,0
55080,0.90625,0.0874023,0.236328,0
55100,0.884766,0.0942383,0.247559,0
55120,0.874023,0.108398,0.264648,0
55140,0.851562,0.121094,0.28418,0
55160,0.851562,0.135742,0.291992,0
55180,0.865723,0.137207,0.305664,0
55200,0.89502,0.152832,0.322266,0
55220,0.857422,0.160156,0.335938,0
55240,0.837402,0.160645,0.345215,0
55260,0.867188,0.172363,0.366211,0
55280,0.907227,0.185059,0.374512,0
55300,0.841797,0.172363,0.375977,0
55320,0.799805,0.180176,0.398926,0
55340,0.822754,0.1875,0.434082,0
55360,0.840332,0.199219,0.437012,0
55380,0.833496,0.207031,0.426758,0
55400,0.804688,0.228027,0.438965,0
55420,0.788574,0.224609,0.457031,0
55440,0.796875,0.21582,0.463867,0
55460,0.806152,0.20459,0.465332,0
55480,0.819336,0.224609,0.469238,0
55500,0.78125,0.21875,0.465332,0
55520,0.746094,0.210449,0.480469,0
55540,0.769043,0.19873,0.500488,0
55560,0.802734,0.215332,0.508301,0
55580,0.77002,0.210449,0.504883,0
55600,0.724609,0.202637,0.51709,0
55620,0.745117,0.19043,0.554199,0
55640,0.77002,0.199219,0.552246,0
55660,0.771484,0.204102,0.549805,0
55680,0.766602,0.208496,0.558105,0
55700,0.756836,0.199707,0.56543,0
55720,0.758789,0.194336,0.569824,0
55740,0.756836,0.172363,0.575684,0
55760,0.75293,0.172363,0.577637,0
55780,0.705566,0.158691,0.569336,0
55800,0.659668,0.143066,0.577637,0
55820,0.677246,0.135254,0.596191,0
55840,0.699707,0.136719,0.600586,0
55860,0.65625,0.137207,0.575195,0
55880,0.633301,0.131348,0.587402,0
55900,0.64502,0.111816,0.609375,0
55920,0.668945,0.101074,0.610352,0
55940,0.647461,0.0878906,0.591797,0
55960,0.599609,0.0761719,0.600586,0
55980,0.632812,0.0644531,0.632812,0
56000,0.646484,0.0805664,0.628906,0
56020,0.60498,0.0605469,0.606445,0
56040,0.608398,0.0229492,0.609375,0
56060,0.638184,0.0297852,0.633789,0
56080,0.623535,0.0078125,0.635742,0
56100,0.621094,0,0.625977,0
56120,0.605957,-0.00244141,0.633301,0
56140,0.620117,-0.0200195,0.641602,0
56160,0.63916,-0.0249023,0.655762,0
56180,0.603027,-0.0605469,0.642578,0
56200,0.618164,-0.0678711,0.661621,0
56220,0.636719,-0.0722656,0.669922,0
56240,0.636719,-0.0786133,0.670898,0
56260,0.630859,-0.0883789,0.666504,0
56280,0.646484,-0.0810547,0.666992,0
56300,0.649414,-0.0981445,0.670898,0
56320,0.643555,-0.111328,0.671387,0
56340,0.634766,-0.121582,0.661133,0
56360,0.64502,-0.125488,0.661621,0
56380,0.633301,-0.12793,0.661133,0
56400,0.612793,-0.136719,0.649414,0
56420,0.624023,-0.147461,0.652344,0
56440,0.611816,-0.150391,0.65918,0
56460,0.578613,-0.168945,0.654785,0
56480,0.59082,-0.180176,0.664062,0
56500,0.600098,-0.179199,0.666504,0
56520,0.59375,-0.188965,0.675293,0
56540,0.594727,-0.201172,0.686035,0
56560,0.603027,-0.210449,0.681152,0
56580,0.625977,-0.216797,0.688965,0
56600,0.614258,-0.221191,0.677734,0
56620,0.600098,-0.239746,0.677734,0
56640,0.609375,-0.250488,0.693359,0
56660,0.592285,-0.259766,0.69043,0
56680,0.546387,-0.294434,0.667969,0
56700,0.543457,-0.310547,0.678223,0
56720,0.55127,-0.309082,0.677734,0
56740,0.543945,-0.302246,0.665527,0
56760,0.513184,-0.324707,0.660645,0
56780,0.501953,-0.345215,0.671387,0
56800,0.518066,-0.336426,0.675293,0
56810,0.51123,-0.349121,0.658203,0
56830,0.496094,-0.363281,0.657715,0
56850,0.503906,-0.362793,0.662109,0
56870,0.493164,-0.361328,0.65918,0
56890,0.49707,-0.354004,0.65918,0
56910,0.49707,-0.367188,0.649902,0
56930,0.490234,-0.373535,0.640625,0
56950,0.510254,-0.387207,0.641602,0
56970,0.515625,-0.39209,0.633789,0
56990,0.514648,-0.393066,0.631836,0
57010,0.50293,-0.400879,0.621094,0
57030,0.491211,-0.437988,0.616699,0
57050,0.518555,-0.438965,0.629883,0
57070,0.527344,-0.427246,0.631348,0
57090,0.504395,-0.430664,0.588867,0
57110,0.493164,-0.467285,0.582031,0
57130,0.520508,-0.466797,0.606445,0
57150,0.528809,-0.456055,0.597168,0
57170,0.50293,-0.479004,0.568848,0
57210,0.533203,-0.508789,0.549316,0
57230,0.541016,-0.508301,0.535645,0
57250,0.530273,-0.51709,0.52002,0
57270,0.55127,-0.530273,0.546387,0
57280,0.57373,-0.501953,0.536133,0
57290,0.576172,-0.50293,0.515625,0
57310,0.602051,-0.502441,0.519531,0
57330,0.618652,-0.498047,0.508301,0
57360,0.606445,-0.50293,0.477539,0
57380,0.61084,-0.515625,0.492676,0
57400,0.621582,-0.506348,0.479492,0
57420,0.628906,-0.504883,0.469238,0
57440,0.634766,-0.505371,0.45459,0
57460,0.664062,-0.494629,0.45752,0
57480,0.677734,-0.489258,0.439941,0
57500,0.664062,-0.499023,0.416016,0
57520,0.661133,-0.528809,0.390625,0
57540,0.659668,-0.521973,0.388672,0
57560,0.649414,-0.508789,0.379883,0
57580,0.646484,-0.531738,0.365234,0
57600,0.644531,-0.555664,0.353516,0
57620,0.67627,-0.559082,0.371094,0
57640,0.703125,-0.540039,0.358398,0
57660,0.686523,-0.531738,0.341797,0
57680,0.674316,-0.530273,0.32666,0
57700,0.681641,-0.575195,0.342285,0
57720,0.709961,-0.540039,0.336426,0
57740,0.700684,-0.485352,0.316406,0
57760,0.693359,-0.473633,0.327148,0
57780,0.751953,-0.487305,0.330078,0
57800,0.76709,-0.508789,0.31543,0
57820,0.723633,-0.523438,0.294922,0
57840,0.716797,-0.466797,0.30127,0
57860,0.740234,-0.470215,0.305176,0
57880,0.760742,-0.499023,0.299805,0
57900,0.777344,-0.505859,0.292969,0
57920,0.76416,-0.480957,0.281738,0
57940,0.790527,-0.451172,0.274414,0
57960,0.802734,-0.4375,0.265625,0
57980,0.803711,-0.435059,0.263184,0
58000,0.82959,-0.447754,0.259277,0
58020,0.859375,-0.43457,0.25293,0
58040,0.817871,-0.410645,0.217285,0
58060,0.804688,-0.39502,0.214355,0
58080,0.809082,-0.397461,0.205566,0
58100,0.819336,-0.395996,0.200195,0
58120,0.833496,-0.401855,0.195801,0
58140,0.806641,-0.407227,0.179199,0
58160,0.807617,-0.395996,0.171387,0
58180,0.86377,-0.382324,0.169922,0
58200,0.872559,-0.374512,0.146973,1001
58220,0.863281,-0.375977,0.126953,0
58240,0.875,-0.379883,0.124512,0
58260,0.882324,-0.380371,0.111328,0
58280,0.871094,-0.385742,0.0976562,0
58300,0.88916,-0.387695,0.0776367,0
58320,0.888672,-0.38623,0.0874023,0
58340,0.885742,-0.381836,0.0717773,0
58360,0.878418,-0.39502,0.0629883,0
58380,0.88916,-0.38916,0.0693359,0
58400,0.88916,-0.404785,0.0585938,0
58420,0.878418,-0.414551,0.0551758,0
58440,0.861328,-0.415039,0.0419922,0
58460,0.851074,-0.419922,0.0561523,0
58480,0.841309,-0.421387,0.0478516,0
58500,0.820312,-0.441895,0.0449219,0
58520,0.798828,-0.437988,0.0512695,0
58540,0.782227,-0.444336,0.0527344,0
58560,0.770996,-0.453125,0.0546875,0
58580,0.750977,-0.437988,0.0717773,0
58600,0.767578,-0.424805,0.0839844,0
58620,0.726562,-0.430176,0.103516,0
58640,0.6875,-0.396484,0.125488,0
58660,0.651855,-0.375488,0.136719,0
58680,0.639648,-0.368164,0.149902,0
58700,0.657227,-0.400879,0.171387,0
58720,0.683105,-0.382324,0.228516,0
58740,0.665039,-0.356934,0.254883,0
58760,0.603516,-0.371094,0.250488,0
58780,0.669922,-0.421875,0.345215,0
58800,0.673828,-0.359863,0.455566,0
58820,0.562988,-0.360352,0.485352,0
58840,0.481445,-0.45459,0.46875,0
58860,0.524902,-0.518066,0.560059,0
58880,0.592773,-0.48291,0.692871,0
58900,0.521484,-0.46582,0.703125,0
58920,0.454102,-0.555176,0.679199,0
58940,0.442383,-0.68457,0.753906,0
58960,0.497559,-0.613281,0.84375,0
58980,0.461914,-0.580566,0.821777,0
59000,0.387207,-0.658691,0.806152,0
59020,0.390137,-0.70752,0.837402,0
59040,0.416016,-0.689453,0.834961,0
59060,0.369629,-0.687988,0.794922,0
59080,0.300781,-0.676758,0.758301,0
59100,0.253906,-0.623047,0.754395,0
59120,0.219238,-0.584961,0.751465,0
59140,0.182617,-0.64209,0.728027,0
59160,0.20752,-0.658691,0.742188,0
59180,0.214355,-0.616699,0.756348,0
59200,0.197266,-0.615723,0.751465,0
59220,0.214844,-0.607422,0.746582,0
59240,0.231934,-0.573242,0.75,0
59260,0.211426,-0.549805,0.740234,0
59280,0.197266,-0.539062,0.737793,0
59300,0.212891,-0.533691,0.750977,0
59320,0.218262,-0.524414,0.756836,0
59340,0.194336,-0.527344,0.741211,0
59360,0.19043,-0.533691,0.760254,0
59380,0.230469,-0.507324,0.765137,0
59400,0.21582,-0.491211,0.744629,0
59420,0.178711,-0.49707,0.751953,0
59440,0.155273,-0.500488,0.747559,0
59460,0.17334,-0.490723,0.755859,0
59480,0.182129,-0.510742,0.751953,0
59500,0.164062,-0.512695,0.776855,0
59520,0.133789,-0.462891,0.757324,1000
59540,0.128418,-0.474121,0.756348,0
59560,0.165039,-0.485352,0.756836,0
59580,0.181641,-0.487793,0.743164,0
59600,0.160645,-0.483887,0.749512,0
59620,0.163086,-0.485352,0.755371,0
59640,0.161133,-0.509766,0.746582,0
59660,0.157715,-0.49707,0.744629,0
59680,0.160645,-0.499512,0.749512,0
59700,0.171387,-0.493652,0.762695,0
59720,0.176758,-0.500977,0.755371,0
59740,0.196289,-0.48877,0.758789,0
59760,0.232422,-0.469727,0.754883,0
59780,0.269043,-0.456543,0.771484,0
59800,0.287598,-0.463867,0.757324,0
59820,0.298828,-0.452637,0.745605,0
59840,0.300293,-0.470703,0.745605,0
59860,0.308594,-0.476074,0.744141,0
59880,0.325195,-0.465332,0.761719,0
59900,0.336426,-0.452148,0.753418,0
59920,0.326172,-0.468262,0.760254,0
59940,0.312012,-0.439941,0.752441,0
59960,0.283691,-0.465332,0.739746,0
59980,0.319336,-0.455566,0.746582,0
60000,0.339844,-0.473633,0.737305,0
60020,0.352539,-0.468262,0.734375,0
60040,0.351074,-0.42627,0.742676,0
60060,0.353027,-0.397461,0.725098,0
60080,0.375488,-0.419922,0.704102,0
60090,0.41748,-0.422852,0.700195,0
60110,0.408691,-0.404297,0.697266,0
60130,0.377441,-0.393555,0.676758,0
60150,0.40332,-0.433594,0.666992,0
60170,0.463867,-0.443359,0.686523,0
60190,0.451172,-0.423828,0.691895,0
60210,0.417969,-0.402832,0.698242,0
60230,0.455078,-0.39502,0.69873,0
60250,0.510254,-0.403809,0.714355,0
60270,0.476074,-0.388672,0.695801,0
60290,0.42334,-0.359375,0.679688,0
60310,0.429199,-0.358887,0.683105,0
60330,0.463379,-0.391113,0.682129,0
60350,0.490234,-0.380859,0.687012,0
60370,0.476562,-0.365234,0.67627,0
60390,0.47168,-0.380371,0.664551,0
60410,0.491699,-0.37793,0.653809,0
60430,0.520996,-0.369141,0.656738,0
60450,0.515625,-0.367188,0.651367,0
60470,0.518066,-0.351562,0.649902,0
60490,0.519043,-0.347168,0.65625,0
60510,0.539062,-0.34082,0.652832,0
60530,0.547852,-0.340332,0.641113,0
60550,0.560547,-0.346191,0.649414,0
60570,0.534668,-0.327637,0.647949,0
60590,0.547363,-0.310059,0.65332,0
60610,0.558594,-0.323242,0.640625,0
60630,0.549316,-0.322754,0.644043,0
60650,0.563477,-0.333496,0.646973,0
60670,0.59668,-0.30957,0.662598,0
60690,0.623047,-0.311523,0.649902,0
60710,0.606445,-0.302246,0.647949,0
60730,0.593262,-0.291504,0.647949,0
60750,0.599609,-0.291016,0.648438,0
60770,0.605957,-0.296387,0.635742,0
60790,0.62207,-0.299316,0.63623,0
60810,0.608887,-0.29541,0.626953,0
60830,0.585449,-0.274902,0.632812,0
60850,0.61377,-0.26709,0.64209,0
60870,0.622559,-0.265625,0.635254,0
60890,0.605957,-0.253906,0.625,0
60910,0.608887,-0.236328,0.626465,0
60930,0.619141,-0.228027,0.630371,0
60950,0.618652,-0.230469,0.627441,0
60970,0.607422,-0.231445,0.625,0
60990,0.608398,-0.226562,0.640625,0
61010,0.610352,-0.230957,0.642578,0
61030,0.601074,-0.253906,0.643555,0
61050,0.619141,-0.263184,0.666992,0
61050,0.595215,-0.214355,0.659668,0
61070,0.578613,-0.223633,0.658203,0
61090,0.598633,-0.20166,0.683105,0
61110,0.609863,-0.182617,0.673828,0
61130,0.611328,-0.178711,0.67627,0
61150,0.59082,-0.170898,0.676758,0
61170,0.603027,-0.16748,0.691406,0
61190,0.553711,-0.175781,0.686035,0
61210,0.553711,-0.166992,0.691895,0
61230,0.5625,-0.156738,0.689941,0
61250,0.59082,-0.149902,0.689941,0
61270,0.580078,-0.152344,0.687988,0
61290,0.57373,-0.15332,0.702148,0
61310,0.536133,-0.146484,0.700684,0
61330,0.558594,-0.134277,0.703125,0
61350,0.581543,-0.152344,0.712402,0
61370,0.619141,-0.158691,0.712891,0
61390,0.590332,-0.141602,0.721191,0
61410,0.560059,-0.126953,0.722656,0
61430,0.571777,-0.13623,0.726562,0
61450,0.583008,-0.145508,0.730469,0
61470,0.57666,-0.138184,0.73584,0
61490,0.545898,-0.125,0.739746,0
61510,0.547852,-0.120605,0.73584,0
61530,0.554199,-0.122559,0.745605,0
61570,0.506348,-0.135254,0.737793,0
61590,0.523926,-0.130371,0.748047,0
61620,0.508301,-0.146973,0.751953,0
61640,0.52002,-0.113281,0.769043,0
61660,0.507324,-0.121582,0.758301,0
61680,0.510742,-0.133789,0.751953,0
61700,0.517578,-0.147461,0.769531,0
61720,0.531738,-0.152832,0.771973,0
61740,0.464844,-0.134766,0.758301,0
61760,0.430664,-0.117188,0.782715,0
61780,0.45459,-0.133301,0.780273,0
61800,0.506348,-0.162598,0.797363,0
61820,0.507324,-0.157227,0.792969,0
61840,0.482422,-0.137695,0.780762,0
61860,0.463379,-0.145996,0.784668,0
61880,0.476562,-0.155273,0.790039,0
61900,0.461426,-0.168457,0.779785,0
61920,0.385742,-0.185059,0.765625,0
61940,0.32373,-0.159668,0.786133,0
61960,0.337402,-0.15918,0.797852,0
61980,0.407715,-0.200684,0.811035,0
62000,0.425293,-0.185547,0.813965,0
62020,0.387695,-0.1875,0.801758,0
62030,0.362793,-0.215332,0.791992,0
62050,0.38623,-0.206055,0.818848,0
62070,0.376465,-0.181641,0.809082,0
62090,0.317383,-0.206543,0.800293,0
62110,0.314453,-0.227539,0.827148,0
62130,0.372559,-0.210449,0.837891,0
62150,0.349609,-0.214355,0.812988,0
62170,0.284668,-0.237305,0.81543,0
62190,0.27832,-0.224121,0.835938,0
62210,0.330566,-0.195312,0.84375,0
62230,0.331055,-0.233887,0.828613,0
62250,0.306641,-0.271973,0.83252,0
62270,0.289551,-0.232422,0.85498,0
62290,0.280762,-0.239746,0.838867,0
62310,0.303711,-0.250488,0.833008,0
62330,0.305664,-0.237793,0.839844,0
62350,0.260742,-0.252441,0.813965,0
62370,0.240234,-0.266113,0.828125,0
62390,0.258789,-0.262207,0.83252,0
62410,0.283203,-0.251953,0.821289,0
62430,0.278809,-0.255371,0.804688,0
62450,0.26123,-0.257812,0.796875,0
62470,0.246094,-0.26416,0.798828,0
62490,0.26416,-0.270508,0.802246,0
62510,0.28418,-0.26709,0.807617,0
62530,0.279297,-0.303223,0.801758,0
62550,0.285156,-0.305664,0.814453,0
62570,0.285156,-0.291016,0.805664,0
62590,0.278809,-0.30127,0.805664,0
62610,0.299316,-0.317871,0.80957,0
62630,0.310547,-0.331543,0.820801,0
62650,0.284668,-0.320312,0.813965,0
62670,0.239746,-0.350098,0.805176,0
62690,0.259277,-0.32959,0.845703,0
62710,0.255371,-0.310059,0.818359,0
62730,0.222168,-0.356445,0.77832,0
62750,0.240234,-0.402344,0.808594,0
62770,0.269531,-0.342773,0.819824,0
62790,0.232422,-0.354004,0.805176,0
62810,0.227539,-0.369141,0.813477,0
62830,0.245117,-0.380859,0.814941,0
62850,0.222168,-0.399414,0.803223,0
62870,0.205566,-0.411133,0.787598,0
62890,0.22168,-0.404297,0.791504,0
62910,0.211426,-0.407227,0.782715,0
62930,0.189941,-0.417969,0.766113,0
62950,0.205566,-0.448242,0.774902,0
62970,0.248047,-0.427246,0.791992,0
62990,0.248047,-0.408691,0.777344,0
63010,0.193359,-0.436035,0.755859,0
63030,0.190918,-0.447754,0.765137,0
63050,0.213867,-0.443359,0.772949,0
63070,0.217285,-0.442871,0.753906,0
63090,0.199707,-0.444336,0.744141,0
63110,0.147461,-0.460938,0.728516,0
63130,0.15918,-0.466309,0.762695,0
63150,0.216797,-0.452148,0.778809,0
63170,0.231934,-0.44873,0.766602,0
63190,0.208008,-0.467285,0.75293,0
63210,0.23584,-0.468262,0.784668,0
63230,0.257324,-0.444336,0.766113,0
63250,0.20752,-0.479004,0.734863,0
63270,0.178223,-0.489258,0.736816,0
63290,0.260742,-0.479492,0.763184,0
63310,0.303223,-0.474121,0.739258,0
63330,0.228027,-0.504883,0.712402,0
63360,0.209473,-0.503906,0.700195,0
63380,0.229004,-0.521484,0.696289,0
63400,0.239258,-0.530762,0.71582,0
63420,0.250977,-0.516113,0.716309,0
63440,0.257324,-0.522461,0.704102,0
63460,0.250488,-0.542969,0.685547,0
63480,0.246582,-0.533691,0.697754,0
63500,0.276367,-0.51416,0.70459,0
63520,0.297363,-0.507812,0.685547,0
63540,0.29541,-0.507324,0.669922,0
63560,0.270508,-0.518555,0.677246,0
63580,0.309082,-0.51709,0.685547,0
63600,0.365234,-0.538574,0.687012,0
63620,0.367676,-0.523438,0.680664,0
63640,0.349121,-0.51123,0.677246,0
63660,0.341797,-0.514648,0.687988,0
63680,0.357422,-0.518555,0.685059,0
63700,0.396484,-0.52002,0.690918,0
63720,0.412109,-0.515137,0.680664,0
63740,0.383301,-0.503906,0.670898,0
63760,0.357422,-0.491699,0.666016,0
63780,0.385254,-0.495605,0.661621,0
63800,0.40918,-0.482422,0.65625,0
63820,0.396484,-0.470215,0.641602,0
63840,0.399414,-0.463379,0.634277,0
63860,0.426758,-0.450195,0.638184,0
63880,0.431641,-0.441895,0.627441,0
63900,0.416016,-0.442383,0.602051,0
63920,0.47998,-0.474121,0.634766,0
63940,0.564453,-0.458496,0.660156,0
63960,0.528809,-0.43457,0.650879,0
63980,0.479004,-0.434082,0.636719,0
64000,0.506348,-0.467285,0.633301,0
64020,0.547363,-0.461426,0.63916,0
64040,0.557617,-0.403809,0.643555,0
64060,0.556641,-0.392578,0.620605,0
64080,0.579102,-0.443848,0.617676,0
64100,0.590332,-0.435547,0.623535,0
64120,0.583984,-0.388184,0.628906,0
64140,0.62793,-0.380859,0.624023,0
64160,0.629395,-0.42334,0.592285,0
64180,0.587891,-0.414551,0.579102,0
64200,0.620605,-0.366211,0.602539,0
64220,0.618164,-0.363281,0.577637,0
64240,0.663574,-0.408203,0.549316,0
64260,0.638184,-0.416016,0.553711,0
64280,0.623047,-0.367676,0.550781,0
64300,0.652832,-0.343262,0.544922,0
64320,0.681152,-0.38916,0.544434,0
64340,0.648438,-0.390137,0.536621,0
64360,0.630859,-0.351562,0.530273,0
64380,0.635254,-0.32666,0.52002,0
64400,0.683594,-0.344727,0.513184,0
64420,0.700195,-0.375,0.522461,0
64440,0.674805,-0.351074,0.529297,0
64460,0.632812,-0.325195,0.515625,0
64480,0.673828,-0.31543,0.514648,0
64500,0.71582,-0.325195,0.513672,0
64520,0.724609,-0.310547,0.507324,0
64540,0.705566,-0.292969,0.49707,0
64560,0.717285,-0.280273,0.494141,0
64580,0.73877,-0.289551,0.493652,0
64600,0.754395,-0.269531,0.492676,0
64620,0.779297,-0.275391,0.473633,0
64640,0.749023,-0.268555,0.466797,0
64660,0.78125,-0.23584,0.475098,0
64680,0.766113,-0.223145,0.460938,0
64700,0.770996,-0.21582,0.464355,0
64720,0.798828,-0.21875,0.461914,0
64740,0.805176,-0.212402,0.464355,0
64760,0.791016,-0.200684,0.452637,0
64780,0.782227,-0.185059,0.456543,0
64800,0.788574,-0.189453,0.455566,0
64820,0.821289,-0.17041,0.456543,0
64840,0.841797,-0.17334,0.449219,0
64860,0.810059,-0.165039,0.441406,0
64880,0.799316,-0.15918,0.440918,0
64900,0.812012,-0.15332,0.447754,0
64910,0.793457,-0.126953,0.432129,0
64930,0.807129,-0.112793,0.444824,0
64950,0.777832,-0.106934,0.456543,0
64970,0.759277,-0.104004,0.446777,0
64990,0.755371,-0.106445,0.455078,0
65010,0.78125,-0.0854492,0.461914,0
65020,0.775879,-0.0839844,0.470703,0
65040,0.768066,-0.0927734,0.463867,0
65060,0.771484,-0.0932617,0.473633,0
65070,0.790039,-0.0864258,0.479004,0
65090,0.80957,-0.0800781,0.46875,0
65110,0.810059,-0.0766602,0.474609,0
65130,0.802734,-0.0771484,0.467285,0
65150,0.817383,-0.0581055,0.466309,0
65170,0.816895,-0.0537109,0.462891,0
65190,0.856445,-0.0488281,0.478516,0
65210,0.810059,-0.03125,0.474609,0
65230,0.800781,-0.0112305,0.48291,0
65250,0.812012,-0.0180664,0.477051,0
65270,0.792969,-0.0239258,0.469727,0
65290,0.799316,-0.0131836,0.478516,0
65310,0.800293,0.0141602,0.503418,0
65320,0.739746,0.0375977,0.509277,0
65340,0.718262,0.0546875,0.529297,0
65360,0.762207,0.0390625,0.52832,0
65380,0.796875,0.0273438,0.538086,0
65400,0.822754,0.0380859,0.55957,0
65420,0.727051,0.0458984,0.546875,0
65440,0.710449,0.0483398,0.55957,0
65460,0.740723,0.0527344,0.570801,0
65480,0.76416,0.0317383,0.568359,0
65500,0.77002,0.034668,0.561523,0
65520,0.71582,0.0507812,0.567871,0
65540,0.709961,0.0463867,0.577637,0
65560,0.732422,0.0332031,0.572754,0
65580,0.737305,0.046875,0.585938,0
65600,0.749512,0.0605469,0.591309,0
65620,0.682617,0.0473633,0.575684,0
65640,0.687012,0.0419922,0.602051,0
65660,0.722168,0.0537109,0.61084,0
65680,0.740723,0.0473633,0.614746,0
65700,0.73584,0.0297852,0.609863,0
65720,0.710449,0.0473633,0.614258,0
65740,0.700195,0.0385742,0.618164,0
65760,0.71875,0.0263672,0.625977,0
65780,0.749023,0.00634766,0.643555,0
65800,0.638672,0.0424805,0.636719,0
65820,0.549805,0.0410156,0.684082,0
65840,0.589355,-0.0136719,0.70752,0
65860,0.682617,-0.0258789,0.718262,0
65880,0.671875,0.00292969,0.709473,0
65900,0.558594,-0.0195312,0.691895,0
65920,0.53125,-0.0302734,0.720703,0
65940,0.578613,-0.0258789,0.757324,0
65960,0.557617,-0.0454102,0.718262,0
65980,0.469727,-0.0800781,0.720215,0
66000,0.488281,-0.0629883,0.759766,0
66020,0.544922,-0.0527344,0.747559,0
66040,0.544922,-0.0703125,0.730469,0
66060,0.50293,-0.0820312,0.731934,0
66080,0.493652,-0.0664062,0.76416,0
66100,0.522949,-0.0874023,0.771973,0
66120,0.53125,-0.0942383,0.760742,0
66140,0.522461,-0.101074,0.756348,0
66160,0.522949,-0.106445,0.762207,0
66180,0.512695,-0.121582,0.747559,0
66200,0.477539,-0.119141,0.724609,0
66220,0.447754,-0.123535,0.736328,0
66240,0.453125,-0.132812,0.750488,0
66260,0.483398,-0.148438,0.76123,0
66280,0.474609,-0.133301,0.741211,0
66300,0.436523,-0.162598,0.715332,0
66320,0.449707,-0.179199,0.73584,0
66340,0.478027,-0.155273,0.735352,0
66360,0.456543,-0.168945,0.70459,0
66380,0.427246,-0.188477,0.716797,0
66400,0.427734,-0.196777,0.740723,0
66420,0.450684,-0.223633,0.754883,0
66440,0.465332,-0.223633,0.747559,0
66460,0.438965,-0.242188,0.734863,0
66480,0.428711,-0.250488,0.75,0
66500,0.421875,-0.247559,0.746094,0
66520,0.404785,-0.258301,0.74707,0
66540,0.413574,-0.283203,0.750977,0
66560,0.412598,-0.277344,0.755859,0
66580,0.384277,-0.291016,0.754883,0
66600,0.377441,-0.314453,0.754395,0
66620,0.390625,-0.30957,0.763184,0
66640,0.384766,-0.29834,0.768066,0
66660,0.373047,-0.313477,0.754395,0
