Timestamp, Acceleration x, Acceleration y, Acceleration z, Marker
50,-0.466797,-0.362793,0.738281,0
70,-0.46582,-0.369629,0.72998,0
90,-0.462402,-0.369629,0.73877,0
110,-0.465332,-0.365723,0.738281,0
130,-0.459961,-0.371094,0.737305,0
150,-0.461914,-0.371582,0.743652,0
160,-0.467285,-0.36084,0.743164,0
160,-0.469727,-0.362793,0.736816,0
200,-0.467285,-0.36377,0.737793,0
220,-0.46875,-0.366211,0.733887,0
240,-0.465332,-0.362305,0.734375,0
260,-0.459961,-0.364258,0.739258,0
280,-0.456055,-0.366699,0.744629,0
300,-0.462891,-0.357422,0.745605,0
320,-0.462891,-0.353516,0.748047,0
340,-0.458496,-0.360352,0.744141,0
360,-0.456543,-0.36084,0.741211,0
380,-0.457031,-0.361816,0.743164,0
400,-0.459473,-0.362305,0.743164,0
420,-0.459961,-0.368164,0.743164,0
440,-0.458496,-0.362305,0.741699,0
460,-0.459961,-0.35791,0.743652,0
480,-0.465332,-0.358398,0.743164,0
500,-0.466797,-0.352051,0.739746,0
520,-0.462402,-0.355957,0.746094,0
540,-0.460938,-0.365234,0.741699,0
560,-0.461914,-0.366699,0.736328,0
580,-0.466797,-0.36377,0.73877,0
600,-0.464355,-0.357422,0.741211,0
620,-0.460449,-0.364258,0.740723,0
640,-0.458984,-0.366699,0.738281,0
660,-0.460449,-0.370117,0.739258,0
680,-0.460449,-0.364258,0.741699,0
700,-0.459473,-0.35791,0.739746,0
720,-0.462402,-0.368164,0.741699,0
740,-0.459961,-0.368652,0.737793,0
760,-0.458008,-0.367676,0.741699,0
780,-0.460938,-0.364258,0.741699,0
800,-0.45752,-0.366211,0.743652,0
820,-0.462891,-0.365234,0.746582,0
840,-0.45752,-0.361816,0.741211,0
860,-0.460938,-0.364746,0.744629,0
880,-0.463379,-0.365723,0.747559,0
900,-0.463867,-0.369629,0.745117,0
920,-0.463379,-0.369629,0.739746,0
940,-0.462891,-0.370605,0.732422,0
960,-0.463379,-0.368652,0.739258,0
980,-0.46582,-0.367188,0.741211,0
1000,-0.463867,-0.369629,0.73877,0
1020,-0.462402,-0.372559,0.735352,0
1040,-0.462891,-0.373535,0.731934,0
1060,-0.458984,-0.377441,0.734375,0
1080,-0.460938,-0.386719,0.734375,0
1100,-0.46582,-0.382812,0.739746,0
1120,-0.462891,-0.37793,0.73584,0
1140,-0.46582,-0.373047,0.729004,0
1160,-0.456543,-0.383789,0.723145,0
1180,-0.457031,-0.384277,0.733398,0
1200,-0.460938,-0.384277,0.72998,0
1220,-0.464355,-0.395508,0.730469,0
1240,-0.462891,-0.383789,0.734375,0
1260,-0.467773,-0.375,0.739258,0
1280,-0.467773,-0.369141,0.743652,0
1300,-0.466309,-0.359375,0.744629,0
1320,-0.461426,-0.360352,0.737305,0
1340,-0.458008,-0.365723,0.734375,0
1360,-0.465332,-0.366211,0.740234,0
1380,-0.463867,-0.368164,0.738281,0
1400,-0.463379,-0.366699,0.736328,0
1420,-0.45459,-0.370117,0.743164,0
1440,-0.455566,-0.369141,0.745605,0
1460,-0.456055,-0.366211,0.746582,0
1480,-0.455566,-0.370605,0.748047,0
1500,-0.450684,-0.365723,0.738281,0
1520,-0.449707,-0.37793,0.738281,0
1540,-0.455078,-0.368164,0.739746,0
1560,-0.459473,-0.369141,0.737793,0
1580,-0.458496,-0.377441,0.740723,0
1600,-0.463867,-0.367676,0.741699,0
1620,-0.467285,-0.362793,0.742188,0
1640,-0.455566,-0.362793,0.733887,0
1660,-0.459961,-0.360352,0.739258,0
1680,-0.460938,-0.369141,0.743164,0
1700,-0.456543,-0.368652,0.741211,0
1720,-0.453613,-0.378418,0.739746,0
1740,-0.455566,-0.374023,0.742676,0
1760,-0.455078,-0.371582,0.743652,0
1780,-0.455566,-0.369629,0.736816,0
1800,-0.454102,-0.371094,0.745117,0
1820,-0.464355,-0.367676,0.741211,0
1830,-0.470703,-0.366699,0.735352,0
1850,-0.463867,-0.371582,0.72998,0
1870,-0.462402,-0.373047,0.739258,0
1890,-0.464355,-0.371582,0.749023,0
1910,-0.460449,-0.370605,0.733398,0
1930,-0.45752,-0.373047,0.747559,0
1950,-0.461426,-0.373047,0.745605,0
1970,-0.46582,-0.378418,0.739746,0
1990,-0.461426,-0.376953,0.730469,0
2010,-0.458496,-0.37207,0.729492,0
2030,-0.46582,-0.366211,0.737793,0
2050,-0.467773,-0.366211,0.736328,0
2070,-0.462891,-0.369629,0.733887,0
2090,-0.462402,-0.37207,0.738281,0
2110,-0.462402,-0.371582,0.724121,0
2130,-0.455078,-0.382324,0.729492,0
2150,-0.465332,-0.370605,0.744629,0
2170,-0.478027,-0.360352,0.744629,0
2190,-0.467285,-0.365723,0.727539,0
2210,-0.459473,-0.370605,0.727051,0
2230,-0.458008,-0.380371,0.736328,0
2250,-0.462891,-0.370117,0.744141,0
2270,-0.458008,-0.375977,0.733887,0
2290,-0.444824,-0.383789,0.730957,0
2310,-0.456055,-0.384277,0.748535,0
2330,-0.470215,-0.376953,0.753906,0
2350,-0.472656,-0.361816,0.749512,0
2370,-0.466797,-0.354004,0.742676,0
2390,-0.48584,-0.349609,0.726074,0
2410,-0.491699,-0.36084,0.724609,0
2430,-0.47168,-0.367676,0.721191,0
2450,-0.458984,-0.375,0.728027,0
2470,-0.45752,-0.38916,0.739746,0
2490,-0.455078,-0.394531,0.745117,0
2510,-0.453613,-0.39209,0.741211,0
2530,-0.458008,-0.385254,0.73584,0
2550,-0.46875,-0.375,0.728516,0
2570,-0.474121,-0.373535,0.729492,0
2590,-0.473145,-0.369141,0.729492,0
2610,-0.479004,-0.368652,0.737793,0
2630,-0.47168,-0.374023,0.732422,0
2650,-0.472168,-0.375,0.728027,0
2670,-0.472168,-0.377441,0.729004,0
2690,-0.462891,-0.37207,0.737793,0
2710,-0.456055,-0.384277,0.732422,0
2730,-0.456543,-0.387207,0.729004,0
2750,-0.453125,-0.387207,0.726562,0
2770,-0.458984,-0.391602,0.730469,0
2790,-0.469238,-0.38916,0.736816,0
2810,-0.477051,-0.380371,0.738281,0
2830,-0.469238,-0.37793,0.731934,0
2850,-0.46875,-0.380371,0.725586,0
2870,-0.46875,-0.384766,0.728027,0
2890,-0.460938,-0.378418,0.731445,0
2910,-0.460449,-0.375977,0.732422,0
2930,-0.461914,-0.382324,0.733398,0
2950,-0.457031,-0.378418,0.738281,0
2970,-0.461914,-0.381836,0.739258,0
2990,-0.463867,-0.372559,0.737793,0
3010,-0.465332,-0.375488,0.728027,0
3030,-0.46582,-0.380859,0.72998,0
3050,-0.46582,-0.369141,0.737305,0
3070,-0.465332,-0.375,0.734863,0
3090,-0.459961,-0.376953,0.730957,0
3110,-0.460938,-0.370117,0.730469,0
3130,-0.458008,-0.373047,0.734863,0
3150,-0.462402,-0.373535,0.742676,0
3170,-0.459961,-0.384277,0.738281,0
3190,-0.45752,-0.380859,0.739746,0
3210,-0.45752,-0.378418,0.740234,0
3230,-0.467285,-0.380371,0.734863,0
3250,-0.459961,-0.370117,0.736328,0
3270,-0.462402,-0.374023,0.73877,0
3290,-0.455078,-0.37207,0.746094,0
3310,-0.452637,-0.371094,0.739258,0
3330,-0.454102,-0.378418,0.73291,0
3350,-0.458984,-0.381348,0.737305,0
3370,-0.461426,-0.378906,0.741211,0
3390,-0.461426,-0.375,0.737793,0
3410,-0.466797,-0.37207,0.740234,0
3430,-0.458496,-0.37207,0.739258,0
3450,-0.455566,-0.369141,0.743164,0
3470,-0.459961,-0.375488,0.743164,0
3490,-0.458496,-0.377441,0.734863,0
3510,-0.453125,-0.375977,0.72998,0
3530,-0.452637,-0.375488,0.745605,0
3550,-0.460449,-0.371094,0.742188,0
3570,-0.459473,-0.374023,0.748535,0
3590,-0.455566,-0.378906,0.739746,0
3610,-0.459961,-0.375,0.740234,0
3630,-0.462402,-0.368652,0.741211,0
3650,-0.463379,-0.375977,0.741699,0
3670,-0.462402,-0.383789,0.745117,0
3690,-0.462402,-0.385742,0.73877,0
3710,-0.453125,-0.383301,0.73584,0
3730,-0.453613,-0.381348,0.734863,0
3750,-0.458984,-0.376953,0.731934,0
3770,-0.458008,-0.391602,0.726562,0
3790,-0.461426,-0.397461,0.728027,0
3810,-0.464355,-0.39209,0.726562,0
3830,-0.469238,-0.399414,0.714844,0
3850,-0.476562,-0.394043,0.724609,0
3870,-0.477051,-0.391602,0.728516,0
3890,-0.464355,-0.386719,0.724609,0
3910,-0.459961,-0.377441,0.724121,0
3930,-0.462891,-0.370605,0.710449,0
3950,-0.466309,-0.358887,0.717285,0
3970,-0.467773,-0.366699,0.725098,0
3990,-0.46582,-0.38916,0.732422,0
4010,-0.460938,-0.412598,0.733887,0
4030,-0.453613,-0.429199,0.725586,0
4050,-0.45166,-0.433105,0.730469,0
4070,-0.456055,-0.417969,0.729492,0
4090,-0.458008,-0.401367,0.732422,0
4110,-0.460938,-0.39502,0.735352,0
4130,-0.459961,-0.387207,0.738281,0
4150,-0.456543,-0.383789,0.727539,0
4170,-0.461914,-0.39502,0.717285,0
4190,-0.465332,-0.391113,0.714355,0
4210,-0.46582,-0.395508,0.720703,0
4230,-0.468262,-0.39502,0.719727,0
4250,-0.468262,-0.391113,0.734863,0
4270,-0.46582,-0.396973,0.740723,0
4290,-0.461426,-0.405273,0.722656,0
4310,-0.460449,-0.400879,0.730469,0
4330,-0.461426,-0.400391,0.727539,0
4350,-0.464844,-0.39209,0.722656,0
4370,-0.47168,-0.395508,0.72168,0
4390,-0.458496,-0.408203,0.726074,0
4400,-0.457031,-0.40625,0.723145,0
4420,-0.458496,-0.396484,0.726074,0
4440,-0.456543,-0.395996,0.727051,0
4460,-0.460938,-0.397949,0.723145,0
4480,-0.466797,-0.393555,0.728027,0
4500,-0.468262,-0.395508,0.728027,0
4520,-0.47168,-0.387207,0.722656,0
4540,-0.465332,-0.387695,0.72168,0
4560,-0.461426,-0.394043,0.726562,0
4580,-0.458984,-0.400879,0.726074,0
4600,-0.460938,-0.39209,0.72998,0
4620,-0.459473,-0.398438,0.731445,0
4640,-0.458496,-0.401367,0.727539,0
4660,-0.462891,-0.396484,0.727051,0
4680,-0.467285,-0.394531,0.72168,0
4700,-0.462891,-0.39502,0.720703,0
4720,-0.461914,-0.398438,0.725586,0
4740,-0.461426,-0.390625,0.73291,0
4760,-0.463379,-0.393066,0.730469,0
4780,-0.466309,-0.390137,0.736328,0
4800,-0.461914,-0.388672,0.725098,0
4820,-0.462891,-0.400879,0.714844,0
4840,-0.461914,-0.399414,0.708496,0
4860,-0.467773,-0.408691,0.70459,0
4880,-0.458008,-0.401855,0.72168,0
4900,-0.460449,-0.384766,0.728027,0
4920,-0.469238,-0.393555,0.719238,0
4940,-0.465332,-0.392578,0.722656,0
4960,-0.457031,-0.393555,0.733398,0
4980,-0.45166,-0.387695,0.739258,0
5000,-0.444824,-0.374512,0.752441,0
5020,-0.454102,-0.367188,0.755859,0
5040,-0.464355,-0.367676,0.75,0
5060,-0.467773,-0.38623,0.761719,0
5080,-0.476562,-0.38916,0.734375,0
5100,-0.477539,-0.337402,0.748047,0
5120,-0.464844,-0.320312,0.756836,0
5140,-0.452637,-0.302246,0.748047,0
5160,-0.455078,-0.30127,0.753418,0
5180,-0.448242,-0.289551,0.754883,0
5200,-0.463379,-0.302734,0.761719,0
5220,-0.479492,-0.327148,0.765137,0
5240,-0.462891,-0.342773,0.747559,0
5260,-0.450684,-0.382812,0.750977,0
5280,-0.479492,-0.375488,0.710449,0
5300,-0.472168,-0.282227,0.73877,0
5320,-0.455566,-0.297363,0.748535,0
5340,-0.458984,-0.297852,0.743652,0
5360,-0.43457,-0.23877,0.804199,0
5380,-0.470703,-0.178711,0.82666,0
5400,-0.522949,-0.191895,0.787109,0
5420,-0.508301,-0.275391,0.747559,0
5440,-0.491699,-0.346191,0.769043,0
5460,-0.468262,-0.325195,0.825684,0
5480,-0.429199,-0.299805,0.822754,0
5500,-0.391113,-0.363281,0.820801,0
5520,-0.388184,-0.443848,0.848633,0
5540,-0.232422,-0.383301,0.874023,0
5560,-0.176758,-0.358887,0.970215,0
5580,-0.317383,-0.52832,0.982422,0
5600,-0.324707,-0.604004,0.974121,0
5620,-0.192383,-0.526855,0.986328,0
5640,-0.155273,-0.384277,0.967773,0
5660,-0.193359,-0.324707,0.923828,0
5680,-0.199707,-0.345703,0.871582,0
5700,-0.160645,-0.366699,0.852051,0
5720,-0.175293,-0.387207,0.856445,0
5740,-0.221191,-0.40918,0.847656,0
5760,-0.241699,-0.427734,0.811523,0
5780,-0.222656,-0.443359,0.774902,0
5800,-0.191406,-0.455566,0.758789,0
5820,-0.186523,-0.438965,0.726074,0
5840,-0.175293,-0.428711,0.704102,0
5860,-0.188477,-0.46875,0.719727,0
5880,-0.141113,-0.512207,0.671387,0
5900,-0.0712891,-0.507324,0.631348,0
5930,-0.0424805,-0.524414,0.6875,0
5950,0.0371094,-0.496094,0.699219,0
5970,0.0708008,-0.414062,0.688965,0
5990,0.143555,-0.453125,0.649902,0
6010,0.192383,-0.496094,0.681641,0
6030,0.139648,-0.532715,0.71582,0
6050,0.133301,-0.608398,0.704102,0
6070,0.151367,-0.662109,0.72168,0
6090,0.128906,-0.656738,0.750488,0
6110,0.122559,-0.671387,0.717285,0
6130,0.155273,-0.719727,0.688477,0
6150,0.184082,-0.699219,0.715332,0
6170,0.166016,-0.677246,0.708496,0
6190,0.149902,-0.663574,0.686523,0
6210,0.125977,-0.655762,0.689941,0
6230,0.12793,-0.620605,0.701172,0
6250,0.117188,-0.59668,0.693848,0
6270,0.101562,-0.615723,0.668457,0
6290,0.104492,-0.600586,0.662109,0
6310,0.124023,-0.573242,0.654297,0
6330,0.103027,-0.541016,0.653809,0
6350,0.0878906,-0.521973,0.65625,0
6370,0.0942383,-0.534668,0.65332,0
6390,0.117676,-0.522461,0.68457,0
6410,0.123535,-0.532227,0.667969,0
6430,0.135254,-0.543457,0.678711,0
6450,0.138672,-0.537109,0.703613,0
6470,0.129395,-0.514648,0.697754,0
6490,0.147949,-0.489258,0.710938,0
6510,0.155762,-0.496582,0.710938,0
6530,0.162598,-0.493164,0.722656,0
6550,0.151367,-0.494141,0.729492,0
6570,0.146484,-0.507324,0.734375,0
6590,0.130371,-0.473633,0.766602,0
6610,0.122559,-0.438477,0.759766,0
6630,0.136719,-0.445801,0.731934,0
6650,0.147461,-0.458008,0.774902,0
6670,0.145508,-0.435059,0.812012,0
6690,0.137207,-0.464844,0.762207,0
6710,0.148438,-0.489746,0.78418,0
6730,0.181641,-0.476562,0.822754,0
6750,0.178711,-0.474121,0.812988,0
6770,0.183105,-0.499023,0.814453,0
6790,0.195801,-0.514648,0.819336,0
6810,0.177734,-0.517578,0.819336,0
6830,0.150391,-0.508789,0.806641,0
6850,0.132324,-0.522461,0.78418,0
6870,0.108887,-0.53125,0.787598,0
6890,0.0737305,-0.544434,0.804199,0
6900,0.0410156,-0.557617,0.777344,0
6920,0.0214844,-0.558105,0.736816,0
6940,0.00634766,-0.570312,0.723633,0
6960,-0.0175781,-0.537109,0.73584,0
6980,-0.0224609,-0.522949,0.745605,0
7000,-0.0273438,-0.535645,0.742188,0
7020,-0.0371094,-0.53418,0.760254,0
7040,-0.0166016,-0.530273,0.759277,0
7060,0.00732422,-0.549805,0.750977,0
7080,0.0292969,-0.550293,0.727539,0
7100,0.0390625,-0.549805,0.728516,0
7120,0.0395508,-0.581055,0.71875,0
7140,0.0356445,-0.59668,0.76416,0
7160,0.0268555,-0.560059,0.804199,0
7180,0.027832,-0.544434,0.771973,0
7200,0.0600586,-0.544922,0.756836,0
7220,0.0429688,-0.53125,0.751465,0
7240,0.0126953,-0.489746,0.764648,0
7260,0.0361328,-0.487793,0.74707,0
7280,0.0488281,-0.503906,0.779297,0
7300,0.0253906,-0.487305,0.783691,0
7320,0.0307617,-0.480957,0.789551,0
7340,0.0532227,-0.495605,0.782227,0
7360,0.0483398,-0.487793,0.786133,0
7380,0.0336914,-0.484863,0.783691,0
7400,0.0136719,-0.479004,0.770508,0
7420,0.00292969,-0.47998,0.763184,0
7440,0.0307617,-0.472168,0.777832,0
7460,0.0341797,-0.470215,0.758301,0
7480,-0.00537109,-0.475098,0.753906,0
7500,-0.0229492,-0.456055,0.754883,0
7520,-0.0195312,-0.446289,0.767578,0
7540,-0.0615234,-0.437988,0.793945,0
7560,-0.11377,-0.461426,0.764648,0
7580,-0.059082,-0.510254,0.809082,0
7600,0.0532227,-0.52002,0.841797,0
7620,0.074707,-0.492188,0.757324,0
7640,0.0463867,-0.497559,0.769531,0
7660,0.00927734,-0.500488,0.750488,0
7680,-0.0258789,-0.49707,0.749512,0
7700,-0.0532227,-0.464844,0.77002,0
7720,-0.0664062,-0.461914,0.814453,0
7740,-0.0488281,-0.45459,0.852051,0
7760,-0.0458984,-0.469727,0.858887,0
7780,-0.0195312,-0.464844,0.832031,0
7800,-0.00146484,-0.414551,0.820801,0
7820,0.00341797,-0.379395,0.782227,0
7840,0.0283203,-0.405273,0.783691,0
7860,0.0629883,-0.39209,0.8125,0
7880,0.0390625,-0.463867,0.772461,0
7900,0.00292969,-0.484375,0.771973,0
7920,-0.097168,-0.492676,0.833008,0
7940,-0.157227,-0.547363,0.804199,0
7960,-0.16748,-0.641113,0.795898,0
7980,-0.0917969,-0.619629,0.798828,0
8000,-0.074707,-0.487793,0.834961,0
8020,-0.11377,-0.36084,0.831543,0
8040,-0.0893555,-0.318848,0.811523,0
8060,-0.0317383,-0.336914,0.814453,0
8080,-0.0546875,-0.333008,0.829102,0
8100,-0.0595703,-0.352051,0.84375,0
8120,-0.0351562,-0.329102,0.86377,0
8140,-0.0498047,-0.313965,0.858887,0
8160,-0.0556641,-0.384766,0.854004,0
8180,-0.0463867,-0.333496,0.865234,0
8200,-0.0366211,-0.342285,0.842773,0
8220,0.0249023,-0.401367,0.77002,0
8240,0.0288086,-0.466309,0.820312,0
8260,0.0102539,-0.625,0.795898,0
8280,-0.0478516,-0.610352,0.813965,0
8300,-0.125,-0.677246,0.836914,0
8320,-0.197754,-0.594238,0.775391,0
8340,-0.237793,-0.441406,0.833008,0
8360,-0.243164,-0.395996,0.841309,0
8380,-0.169434,-0.398438,0.847168,0
8400,-0.104004,-0.42334,0.847168,0
8420,-0.0327148,-0.387207,0.825195,0
8440,-0.0166016,-0.324707,0.829102,0
8460,-0.0400391,-0.304199,0.828125,0
8480,-0.0375977,-0.292969,0.845215,0
8500,-0.0297852,-0.327637,0.847168,0
8520,-0.0151367,-0.369629,0.820801,0
8540,0.00537109,-0.396973,0.793457,0
8560,0.0112305,-0.407715,0.775391,0
8580,0.0336914,-0.455566,0.76709,0
8600,0.0678711,-0.491211,0.783691,0
8620,0.0693359,-0.534668,0.794922,0
8640,-0.0107422,-0.537598,0.777344,0
8660,-0.134277,-0.522461,0.801758,0
8680,-0.230469,-0.526367,0.826172,0
8700,-0.182129,-0.541016,0.782227,0
8720,-0.131836,-0.535645,0.788574,0
8740,-0.161133,-0.489258,0.805664,0
8760,-0.17041,-0.41748,0.754883,0
8780,-0.134766,-0.34375,0.80127,0
8800,-0.0732422,-0.304199,0.880859,0
8820,-0.0410156,-0.389648,0.841309,0
8840,0.000488281,-0.436035,0.840332,0
8860,0.0375977,-0.461426,0.870605,0
8880,0.065918,-0.437988,0.899414,0
8900,0.050293,-0.487793,0.877441,0
8920,0.0244141,-0.551758,0.873047,0
8940,0.0332031,-0.547363,0.883789,0
8960,0.0522461,-0.548828,0.885254,0
8980,0.0185547,-0.595703,0.858887,0
9000,0.0488281,-0.608887,0.838867,0
9020,0.0942383,-0.583496,0.800293,0
9040,0.12793,-0.566895,0.776855,0
9060,0.12793,-0.59668,0.769043,0
9070,0.123047,-0.575684,0.756836,0
9070,0.131348,-0.5625,0.717285,0
9090,0.133789,-0.510254,0.719727,0
9110,0.243652,-0.483398,0.726074,0
9160,0.103516,-0.408203,0.466797,0
9180,0.0888672,-0.399414,0.483887,0
9200,0.196777,-0.415039,0.649414,0
9220,0.189453,-0.367676,0.655273,0
9240,0.176758,-0.348633,0.649414,0
9260,0.180176,-0.331055,0.644043,0
9280,0.196289,-0.311035,0.648438,0
9300,0.22168,-0.287598,0.647949,0
9320,0.207031,-0.277832,0.649902,0
9340,0.17041,-0.254395,0.693848,0
9360,0.133789,-0.224121,0.73584,0
9380,0.135742,-0.262695,0.733887,0
9400,0.131836,-0.310059,0.730469,0
9420,0.121582,-0.304199,0.797852,0
9440,0.102051,-0.294922,0.851562,0
9460,0.0952148,-0.353027,0.813477,0
9470,0.0234375,-0.384766,0.852539,0
9490,-0.0571289,-0.416992,0.900879,0
9510,-0.0673828,-0.435059,0.862305,0
9530,-0.0444336,-0.447266,0.879883,0
9550,-0.0800781,-0.491699,0.905273,0
9570,-0.0834961,-0.495605,0.930664,0
9590,-0.0517578,-0.473633,0.891602,0
9610,0.00683594,-0.567383,0.858887,0
9630,0.0371094,-0.668945,0.907715,0
9650,-0.00439453,-0.671875,0.922363,0
9670,-0.0571289,-0.60498,0.878418,0
9690,-0.0288086,-0.600586,0.907227,0
9710,-0.0361328,-0.687988,0.879395,0
9730,-0.0800781,-0.753418,0.847656,0
9750,-0.0898438,-0.743652,0.865234,0
9770,-0.0698242,-0.749512,0.84082,0
9790,-0.0405273,-0.791016,0.816895,0
9810,0.0224609,-0.79834,0.813965,0
9830,0.0415039,-0.757324,0.789062,0
9850,0.0708008,-0.743652,0.771484,0
9870,0.0893555,-0.772949,0.734863,0
9890,0.112793,-0.783691,0.710938,0
9910,0.144531,-0.764648,0.699707,0
9930,0.163574,-0.734863,0.675293,0
9950,0.153809,-0.714844,0.634277,0
9970,0.148438,-0.683105,0.588867,0
9990,0.186035,-0.617676,0.56543,0
10010,0.206055,-0.574219,0.538086,0
10030,0.227051,-0.553223,0.498047,0
10050,0.25293,-0.532715,0.47168,0
10070,0.274902,-0.499512,0.451172,0
10090,0.306641,-0.479004,0.44043,0
10110,0.323242,-0.481445,0.428223,0
10130,0.351074,-0.464844,0.418457,0
10150,0.363281,-0.433105,0.439941,0
10170,0.392578,-0.421875,0.420898,0
10190,0.407715,-0.40332,0.422852,0
10210,0.391113,-0.361816,0.439941,0
10230,0.395508,-0.319824,0.449219,0
10250,0.424316,-0.330078,0.462402,0
10270,0.452637,-0.338379,0.470215,0
10290,0.469238,-0.357422,0.524414,0
10310,0.476074,-0.36377,0.564941,0
10330,0.419922,-0.375488,0.595215,0
10350,0.40625,-0.374512,0.627441,0
10370,0.403809,-0.37207,0.661133,0
10390,0.381348,-0.35791,0.680664,0
10410,0.33252,-0.351074,0.70752,0
10430,0.244141,-0.363281,0.730957,0
10450,0.216309,-0.430176,0.72998,0
10470,0.23877,-0.437012,0.783203,0
10490,0.243164,-0.459961,0.807617,0
10510,0.212402,-0.512207,0.817383,0
10530,0.185547,-0.538086,0.836914,0
10550,0.139648,-0.54834,0.822266,0
10570,0.144043,-0.506836,0.850098,0
10590,0.126953,-0.507812,0.871582,0
10610,0.0639648,-0.570312,0.835449,0
10630,0.0541992,-0.600586,0.826172,0
10650,0.0639648,-0.627441,0.887207,0
10670,0.00439453,-0.658691,0.84082,0
10690,-0.0249023,-0.628418,0.803223,0
10710,-0.0209961,-0.629883,0.85498,0
10730,-0.0395508,-0.65332,0.875488,0
10750,-0.0532227,-0.699219,0.814453,0
10770,-0.0546875,-0.688965,0.783691,0
10790,-0.0454102,-0.675293,0.773926,0
10810,-0.0429688,-0.707031,0.775391,0
10830,-0.0766602,-0.696289,0.744629,0
10850,-0.0830078,-0.690918,0.717773,0
10870,-0.074707,-0.67334,0.734375,0
10890,-0.0717773,-0.69043,0.719238,0
10910,-0.0478516,-0.675781,0.731445,0
10930,-0.0488281,-0.647949,0.73291,0
10950,-0.0424805,-0.65625,0.723145,0
10970,-0.00634766,-0.663086,0.73584,0
10990,0.0297852,-0.64502,0.717285,0
11010,0.0273438,-0.625488,0.707031,0
11030,0.0268555,-0.59668,0.705566,0
11050,0.0483398,-0.593262,0.696777,0
11070,0.0791016,-0.605957,0.675293,0
11090,0.0673828,-0.587891,0.664062,0
11110,0.0493164,-0.582031,0.650879,0
11130,0.0693359,-0.570801,0.651367,0
11150,0.0927734,-0.580566,0.641602,0
11170,0.0991211,-0.59082,0.64502,0
11190,0.0742188,-0.609375,0.631348,0
11210,0.0820312,-0.600586,0.641113,0
11230,0.0976562,-0.581543,0.644531,0
11250,0.090332,-0.580566,0.655273,0
11270,0.0771484,-0.588379,0.646484,0
11290,0.0908203,-0.586426,0.66748,0
11310,0.111328,-0.614258,0.64502,0
11330,0.112305,-0.611816,0.65625,0
11350,0.0966797,-0.617188,0.67041,0
11370,0.10498,-0.620605,0.680664,0
11390,0.119629,-0.616211,0.674805,0
11410,0.120605,-0.631348,0.682617,0
11430,0.114746,-0.625488,0.678711,0
11450,0.122559,-0.626953,0.678711,0
11470,0.130859,-0.614746,0.694336,0
11490,0.131348,-0.591309,0.694824,0
11510,0.14209,-0.606445,0.670898,0
11530,0.146484,-0.600098,0.69043,0
11550,0.150879,-0.585449,0.707031,0
11570,0.145508,-0.57959,0.699219,0
11590,0.155273,-0.596191,0.692383,0
11610,0.163574,-0.588867,0.696289,0
11630,0.161621,-0.569824,0.707031,0
11650,0.156738,-0.570801,0.690918,0
11670,0.149902,-0.583008,0.69873,0
11690,0.149414,-0.575684,0.70459,0
11710,0.151367,-0.565918,0.709473,0
11730,0.141113,-0.56543,0.706543,0
11750,0.136719,-0.577637,0.690918,0
11770,0.139648,-0.568848,0.701172,0
11790,0.129883,-0.560059,0.708008,0
11810,0.127441,-0.561523,0.70752,0
11830,0.126465,-0.575684,0.706543,0
11850,0.125977,-0.575684,0.706543,0
11870,0.120605,-0.571289,0.70752,0
11890,0.117676,-0.568848,0.708008,0
11910,0.113281,-0.569336,0.709961,0
11930,0.118164,-0.569824,0.710938,0
11950,0.116211,-0.577148,0.720215,0
11970,0.113281,-0.582031,0.716309,0
11990,0.104492,-0.582031,0.717285,0
12010,0.108398,-0.568848,0.719727,0
12030,0.109375,-0.564941,0.719727,0
12040,0.101074,-0.577148,0.723145,0
12060,0.0991211,-0.583984,0.719238,0
12080,0.100586,-0.583984,0.720215,0
12100,0.0942383,-0.579102,0.718262,0
12120,0.0966797,-0.567383,0.722168,0
12140,0.102051,-0.570801,0.722168,0
12160,0.0854492,-0.571289,0.716309,0
12180,0.0717773,-0.581543,0.71582,0
12200,0.0737305,-0.575195,0.725098,0
12220,0.0683594,-0.566406,0.724609,0
12240,0.0600586,-0.569336,0.70459,0
12260,0.0561523,-0.564453,0.717773,0
12280,0.0493164,-0.571289,0.724121,0
12300,0.0512695,-0.572754,0.737793,0
12320,0.0458984,-0.57959,0.734375,0
12340,0.0473633,-0.58252,0.718262,0
12360,0.034668,-0.574219,0.722656,0
12380,0.0356445,-0.563477,0.739746,0
12400,0.034668,-0.571777,0.732422,0
12420,0.0209961,-0.580566,0.734375,0
12420,0.0146484,-0.580078,0.741699,0
12440,0.015625,-0.577148,0.73291,0
12460,0.012207,-0.581543,0.73877,0
12480,0.0126953,-0.574707,0.744629,0
12500,0.00439453,-0.563965,0.734863,0
12520,-0.00488281,-0.571777,0.72998,0
12540,-0.00390625,-0.570312,0.728516,0
12560,-0.0200195,-0.561523,0.73584,0
12580,-0.0229492,-0.567871,0.729492,0
12600,-0.0219727,-0.561523,0.729492,0
12620,-0.0146484,-0.557617,0.740723,0
12640,-0.0209961,-0.548828,0.743652,0
12660,-0.0395508,-0.557617,0.73877,0
12680,-0.0307617,-0.565918,0.737793,0
12700,-0.0302734,-0.555664,0.742188,0
12720,-0.0341797,-0.550293,0.756836,0
12740,-0.0429688,-0.540527,0.760742,0
12760,-0.0522461,-0.547852,0.750977,0
12780,-0.0419922,-0.553711,0.757812,0
12800,-0.0419922,-0.538574,0.766113,0
12820,-0.0517578,-0.540527,0.760254,0
12840,-0.0576172,-0.528809,0.766602,0
12860,-0.0791016,-0.527832,0.756836,0
12880,-0.0756836,-0.520996,0.74707,0
12900,-0.0795898,-0.501465,0.758301,0
12920,-0.0932617,-0.503906,0.749023,0
12940,-0.118164,-0.479004,0.740723,0
12960,-0.14502,-0.474121,0.727051,0
12980,-0.147949,-0.466797,0.727051,0
13000,-0.155273,-0.433594,0.73877,0
13020,-0.188477,-0.450684,0.716309,0
13040,-0.165527,-0.458008,0.702148,0
13060,-0.14209,-0.416016,0.753418,0
13080,-0.166992,-0.435059,0.791504,0
13100,-0.215332,-0.445801,0.760254,0
13120,-0.230957,-0.458496,0.730469,0
13140,-0.198242,-0.429688,0.79541,0
13160,-0.241699,-0.458496,0.79248,0
13180,-0.288574,-0.489258,0.753418,0
13200,-0.293457,-0.51123,0.746582,0
13220,-0.320312,-0.507324,0.788574,0
13240,-0.369629,-0.489258,0.758301,0
13260,-0.432617,-0.494141,0.763672,0
13280,-0.445312,-0.733398,0.820312,0
13300,-0.271484,-0.961914,0.905273,0
13320,-0.115234,-0.398438,0.76123,0
13340,-0.375,-0.483398,0.706543,0
13360,-0.708984,-0.443359,0.744629,0
13380,-0.680176,-0.452148,0.708008,0
13400,-0.588379,-0.474121,0.723633,0
13420,-0.467285,-0.476074,0.671875,0
13440,-0.413086,-0.417969,0.605469,0
13460,-0.478516,-0.324707,0.629883,0
13480,-0.48584,-0.366699,0.592773,0
13500,-0.470215,-0.484375,0.635254,0
13520,-0.467773,-0.541992,0.709961,0
13540,-0.461426,-0.531738,0.702637,0
13560,-0.473145,-0.511719,0.69043,0
13580,-0.490723,-0.464844,0.679688,0
13600,-0.498047,-0.432129,0.669922,0
13620,-0.505859,-0.429688,0.67041,0
13640,-0.514648,-0.455566,0.671875,0
13660,-0.513672,-0.478516,0.671387,0
13680,-0.488281,-0.476562,0.67334,0
13700,-0.488281,-0.46875,0.679199,0
13720,-0.471191,-0.45459,0.682129,0
13740,-0.476562,-0.442871,0.687012,0
13760,-0.476074,-0.443359,0.697754,0
13780,-0.460449,-0.453125,0.696289,0
13800,-0.453125,-0.459473,0.697754,0
13820,-0.47168,-0.450684,0.695312,0
13840,-0.483398,-0.439453,0.699219,0
13860,-0.479004,-0.430664,0.70166,0
13880,-0.472656,-0.434082,0.707031,0
13900,-0.463379,-0.438965,0.708496,0
13920,-0.459473,-0.444824,0.70459,0
13940,-0.461914,-0.446289,0.712402,0
13960,-0.459961,-0.447754,0.702637,0
13980,-0.463379,-0.447754,0.704102,0
14000,-0.461426,-0.4375,0.703125,0
14020,-0.464844,-0.433105,0.704102,0
14040,-0.47168,-0.425781,0.695312,0
14060,-0.476074,-0.430664,0.699707,0
14080,-0.464844,-0.438477,0.70752,0
14100,-0.470703,-0.44873,0.706543,0
14120,-0.469238,-0.452637,0.702148,0
14140,-0.462402,-0.449219,0.695801,0
14160,-0.46582,-0.450195,0.69873,0
14180,-0.474609,-0.441895,0.699219,0
14200,-0.470703,-0.434082,0.699219,0
14220,-0.46582,-0.441406,0.700684,0
14240,-0.458008,-0.439941,0.698242,0
14260,-0.460449,-0.444336,0.701172,0
14280,-0.463379,-0.446289,0.706055,0
14300,-0.467773,-0.4375,0.708008,0
14320,-0.464355,-0.436035,0.705566,0
14340,-0.465332,-0.439941,0.701172,0
14360,-0.464355,-0.441895,0.693359,0
14380,-0.46875,-0.446289,0.695312,0
14400,-0.471191,-0.447754,0.700684,0
14420,-0.46875,-0.447754,0.693848,0
14440,-0.467773,-0.44873,0.691895,0
14460,-0.474121,-0.446289,0.693848,0
14480,-0.474609,-0.450195,0.696289,0
14500,-0.469238,-0.444824,0.690918,0
14520,-0.469238,-0.446777,0.696777,0
14540,-0.470703,-0.445801,0.70459,0
14560,-0.472168,-0.443848,0.699707,0
14580,-0.467285,-0.447754,0.695801,0
14600,-0.469727,-0.44043,0.695312,0
14610,-0.469727,-0.445312,0.69873,0
14630,-0.468262,-0.443848,0.696777,0
14650,-0.46582,-0.443848,0.703613,0
14670,-0.466797,-0.439941,0.703613,0
14690,-0.472168,-0.4375,0.702148,0
14710,-0.470215,-0.444824,0.701172,0
14730,-0.467773,-0.439453,0.694824,0
14750,-0.466309,-0.445312,0.702148,0
14770,-0.464844,-0.444336,0.704102,0
14790,-0.472656,-0.440918,0.693359,0
14810,-0.472168,-0.442383,0.708008,0
14830,-0.474121,-0.439453,0.703125,0
14850,-0.471191,-0.439941,0.70166,0
14870,-0.469727,-0.435547,0.702637,0
14890,-0.471191,-0.441406,0.701172,0
14910,-0.469238,-0.444824,0.696777,0
14930,-0.471191,-0.441406,0.694824,0
14950,-0.473633,-0.445801,0.702148,0
14970,-0.469727,-0.441406,0.698242,0
14990,-0.46875,-0.440918,0.69873,0
15010,-0.467773,-0.4375,0.695801,0
15030,-0.469727,-0.436035,0.705566,0
15050,-0.473633,-0.445801,0.700195,0
15070,-0.471191,-0.445801,0.689941,0
15090,-0.467285,-0.439941,0.700684,0
15110,-0.473633,-0.441406,0.705078,0
15130,-0.474609,-0.443359,0.702637,0
15150,-0.47998,-0.444824,0.696777,0
15170,-0.470215,-0.44043,0.697266,0
15190,-0.469238,-0.44043,0.698242,0
15210,-0.472168,-0.446777,0.691895,0
15230,-0.468262,-0.44043,0.69873,0
15250,-0.475098,-0.442383,0.703613,0
15270,-0.477539,-0.439941,0.703125,0
15290,-0.471191,-0.442383,0.693359,0
15310,-0.469727,-0.444336,0.694824,0
15330,-0.469727,-0.437988,0.698242,0
15350,-0.469727,-0.443848,0.699219,0
15370,-0.473633,-0.437012,0.696777,0
15390,-0.477539,-0.442871,0.70166,0
15410,-0.47998,-0.441895,0.70166,0
15430,-0.473145,-0.437988,0.697754,0
15450,-0.469238,-0.443359,0.698242,0
15470,-0.471191,-0.44043,0.700684,0
15490,-0.471191,-0.437988,0.699707,0
15510,-0.472168,-0.438965,0.706055,0
15530,-0.475098,-0.445312,0.702637,0
15550,-0.479492,-0.447266,0.717773,0
15570,-0.475586,-0.45752,0.741699,0
15590,-0.45459,-0.447266,0.751953,0
15610,-0.451172,-0.437012,0.726562,0
15630,-0.445312,-0.457031,0.696777,0
15650,-0.439941,-0.413086,0.730469,0
15670,-0.443848,-0.363281,0.757812,0
15690,-0.430664,-0.357422,0.730957,0
15710,-0.389648,-0.418457,0.714844,0
15730,-0.368652,-0.460449,0.74707,0
15750,-0.366699,-0.498535,0.706055,0
15770,-0.428711,-0.482422,0.688965,0
15790,-0.499023,-0.449219,0.712402,0
15810,-0.546387,-0.416992,0.668457,0
15830,-0.53418,-0.447266,0.662109,0
15850,-0.52002,-0.504395,0.693848,0
15870,-0.526367,-0.503906,0.676758,0
15890,-0.498535,-0.493652,0.678223,0
15910,-0.455078,-0.495605,0.683105,0
15930,-0.433594,-0.483398,0.674805,0
15950,-0.446289,-0.491699,0.629883,0
15970,-0.482422,-0.517578,0.605469,0
15990,-0.513184,-0.494629,0.624023,0
16010,-0.492188,-0.493652,0.63916,0
16030,-0.479492,-0.494141,0.643555,0
16050,-0.507324,-0.511719,0.634766,0
16070,-0.476562,-0.474121,0.64209,0
16090,-0.45166,-0.498535,0.674805,0
16110,-0.455566,-0.499023,0.657715,0
16130,-0.462402,-0.554688,0.688965,0
16150,-0.428711,-0.557617,0.686035,0
16170,-0.397461,-0.512695,0.664062,0
16190,-0.382324,-0.503418,0.663086,0
16210,-0.387207,-0.527344,0.703613,0
16230,-0.377441,-0.544434,0.748535,0
16250,-0.374023,-0.555664,0.714844,0
16270,-0.37793,-0.525879,0.699707,0
16290,-0.393555,-0.492188,0.702637,0
16310,-0.339844,-0.46875,0.731445,0
16330,-0.318848,-0.53125,0.691895,0
16350,-0.333496,-0.615723,0.717285,0
16370,-0.331055,-0.643066,0.746582,0
16390,-0.314453,-0.647949,0.69873,0
16410,-0.324219,-0.593262,0.683105,0
16430,-0.341309,-0.518066,0.719727,0
16450,-0.331543,-0.48877,0.728516,0
16470,-0.3125,-0.500488,0.721191,0
16490,-0.282715,-0.562988,0.725098,0
16510,-0.317383,-0.597168,0.765137,0
16530,-0.374023,-0.555664,0.834473,0
16550,-0.300781,-0.516113,0.904785,0
16570,-0.10498,-0.595215,0.885742,0
16590,0.0395508,-0.609375,0.879883,0
16610,0.0668945,-0.531738,0.91748,0
16630,0.173828,-0.518066,0.919922,0
16650,0.290527,-0.549316,0.897461,0
16670,0.260742,-0.53125,0.847168,0
16690,0.310547,-0.522461,0.817383,0
16710,0.411621,-0.566406,0.8125,0
16730,0.419434,-0.569336,0.758301,0
16750,0.395996,-0.508301,0.755371,0
16770,0.447754,-0.46875,0.772461,0
16790,0.560059,-0.433105,0.779785,0
16810,0.55957,-0.368164,0.774414,0
16830,0.522461,-0.336914,0.737793,0
16850,0.589844,-0.35791,0.686523,0
16870,0.666992,-0.342773,0.675781,0
16890,0.686035,-0.365723,0.616211,0
16910,0.647461,-0.35498,0.534668,0
16930,0.694824,-0.345703,0.457031,0
16950,0.726074,-0.331055,0.444336,0
16970,0.722168,-0.336914,0.327148,0
16990,0.74707,-0.362305,0.269043,0
17010,0.751465,-0.333496,0.23291,0
17030,0.76416,-0.300781,0.11377,0
17050,0.768555,-0.296875,0.0473633,0
17070,0.754883,-0.290527,0.0444336,0
17090,0.75293,-0.256348,-0.0258789,0
17110,0.735352,-0.226074,-0.0957031,0
17130,0.742676,-0.237793,-0.0766602,0
17150,0.747559,-0.289551,-0.175781,0
17170,0.72168,-0.27002,-0.199707,0
17180,1.00635,-0.29248,-0.513184,0
17200,1.09863,-0.130371,-0.0864258,0
17220,1.00342,0.0805664,-0.199219,0
17240,0.817383,-0.0473633,-0.28418,0
17260,0.796875,-0.214844,-0.242676,0
17280,0.824219,-0.366211,-0.262207,0
17300,0.892578,-0.409668,-0.245605,0
17320,0.885742,-0.323242,-0.204102,0
17340,0.87793,-0.293457,-0.26123,0
17360,0.887207,-0.309082,-0.25,0
17380,0.90332,-0.32373,-0.230957,0
17400,0.923828,-0.319336,-0.222168,0
17420,0.930664,-0.270996,-0.20166,0
17440,0.90918,-0.263184,-0.221191,0
17460,0.918945,-0.302734,-0.233887,0
17480,0.915527,-0.312988,-0.208008,0
17500,0.910645,-0.291016,-0.197754,0
17520,0.913086,-0.279785,-0.225586,0
17540,0.910156,-0.286133,-0.223633,0
17560,0.898926,-0.279785,-0.226562,0
17580,0.888672,-0.262207,-0.250977,0
17600,0.898438,-0.248047,-0.271484,0
17620,0.90332,-0.236816,-0.280762,0
17640,0.88916,-0.251465,-0.28418,0
17660,0.899414,-0.292969,-0.283691,0
17680,0.912109,-0.299805,-0.267578,0
17700,0.921875,-0.291992,-0.29541,0
17720,0.933105,-0.255371,-0.290527,0
17740,0.927246,-0.288086,-0.274902,0
17760,0.913086,-0.296875,-0.296875,0
17780,0.896484,-0.283203,-0.29248,0
17800,0.884766,-0.285645,-0.281738,0
17820,0.912598,-0.306152,-0.279785,0
17840,0.937988,-0.310059,-0.273438,0
17860,0.924316,-0.314453,-0.263184,0
17880,0.907715,-0.295898,-0.287598,0
17900,0.896973,-0.267578,-0.251465,0
17920,0.88623,-0.330078,-0.27002,0
17940,0.867676,-0.363281,-0.279297,0
17960,0.851074,-0.28418,-0.262207,0
17980,0.861816,-0.233887,-0.241211,0
18000,0.875,-0.227051,-0.224609,0
18020,0.868652,-0.266602,-0.268066,0
18040,0.888184,-0.287598,-0.245117,0
18060,0.930176,-0.288086,-0.224609,0
18080,0.943359,-0.288574,-0.260742,0
18100,0.958496,-0.285645,-0.288086,0
18120,1.04004,-0.295898,-0.267578,0
18140,1.00439,-0.318848,-0.238281,0
18160,1.00195,-0.310547,-0.224609,0
18180,1.00195,-0.294434,-0.206543,0
18200,0.993652,-0.310547,-0.234375,0
18220,0.973145,-0.304199,-0.260742,0
18240,0.952637,-0.290039,-0.240234,0
18260,0.935547,-0.255859,-0.230957,0
18280,0.940918,-0.25,-0.223145,0
18300,0.927734,-0.258301,-0.231445,0
18320,0.911621,-0.267578,-0.249023,0
18340,0.866699,-0.259277,-0.257812,0
18360,0.870117,-0.246094,-0.268555,0
18380,0.891602,-0.254883,-0.262695,0
18400,0.890137,-0.272949,-0.262695,0
18420,0.85791,-0.290527,-0.290039,0
18440,0.860352,-0.308105,-0.327148,0
18460,0.875,-0.275391,-0.313477,0
18480,0.899902,-0.287109,-0.292969,0
18500,0.887207,-0.320801,-0.316406,0
18520,0.876465,-0.304199,-0.332031,0
18540,0.887695,-0.290039,-0.318848,0
18560,0.880371,-0.305176,-0.324707,0
18580,0.902344,-0.294434,-0.317871,0
18600,0.917969,-0.307129,-0.290039,0
18620,0.870117,-0.304199,-0.312988,0
18640,0.863281,-0.279297,-0.307617,0
18660,0.864746,-0.280762,-0.258789,0
18680,0.874023,-0.312012,-0.254883,0
18700,0.874023,-0.318848,-0.270508,0
18720,0.885254,-0.314941,-0.269531,0
18740,0.890625,-0.308105,-0.275391,0
18760,0.902344,-0.313965,-0.279785,0
18780,0.906738,-0.320312,-0.245605,0
18800,0.918945,-0.32666,-0.27002,0
18820,0.933594,-0.331543,-0.26416,0
18840,0.947266,-0.338379,-0.258301,0
18860,0.925781,-0.321289,-0.277344,0
18880,0.914062,-0.313965,-0.263184,0
18900,0.933105,-0.333984,-0.244141,0
18920,0.923828,-0.364746,-0.232422,0
18940,0.892578,-0.347656,-0.236816,0
18960,0.844238,-0.326172,-0.219727,0
18980,0.83252,-0.312988,-0.20752,0
19000,0.880371,-0.304199,-0.203125,0
19020,0.914551,-0.307617,-0.23291,0
19040,0.925781,-0.291504,-0.256348,0
19060,0.904297,-0.318359,-0.227539,0
19080,0.887207,-0.323242,-0.197754,0
19100,0.883301,-0.299316,-0.19043,0
19120,0.893555,-0.304199,-0.200684,0
19140,0.913086,-0.306641,-0.181641,0
19160,0.885742,-0.286621,-0.181641,0
19180,0.880859,-0.308105,-0.200195,0
19200,0.885742,-0.333984,-0.193359,0
19220,0.897461,-0.338867,-0.192383,0
19240,0.895996,-0.331055,-0.191406,0
19260,0.913086,-0.326172,-0.184082,0
19280,0.92041,-0.34082,-0.150391,0
19300,0.913574,-0.363281,-0.145996,0
19320,0.940918,-0.348145,-0.0893555,0
19340,0.964355,-0.33252,-0.0356445,0
19360,0.949707,-0.318848,-0.101074,0
19380,0.95752,-0.35791,-0.0961914,0
19400,0.975098,-0.37793,-0.0610352,0
19420,0.939941,-0.367188,-0.0756836,0
19440,0.925293,-0.396484,-0.0668945,0
19460,0.917969,-0.375977,-0.125,0
19480,0.935059,-0.342773,-0.146484,0
19500,0.923828,-0.339355,-0.114746,0
19520,0.92627,-0.354004,-0.124023,0
19540,0.920898,-0.321777,-0.132812,0
19560,0.967285,-0.340332,-0.113281,0
19580,0.949219,-0.350586,-0.103027,0
19600,0.87793,-0.324707,-0.116699,0
19620,0.851074,-0.314941,-0.0927734,0
19640,0.851074,-0.293457,-0.114258,0
19660,0.860352,-0.321777,-0.103516,0
19680,0.875,-0.343262,-0.0771484,0
19700,0.881348,-0.333496,-0.0771484,0
19720,0.903809,-0.347656,-0.0986328,0
19740,0.904785,-0.33252,-0.0996094,0
19750,0.983887,-0.345215,-0.0878906,0
19770,0.887695,-0.377441,-0.0922852,0
19790,0.872559,-0.383789,-0.0849609,0
19810,0.882324,-0.374512,-0.0927734,0
19830,0.880371,-0.395508,-0.0859375,0
19850,0.891602,-0.407715,-0.097168,0
19870,0.900879,-0.401855,-0.0820312,0
19890,0.916016,-0.38623,-0.0820312,0
19910,0.930664,-0.390137,-0.0756836,0
19930,0.92334,-0.402344,-0.0722656,0
19950,0.910156,-0.394531,-0.081543,0
19970,0.908203,-0.407715,-0.0961914,0
19990,0.898438,-0.381348,-0.119629,0
20010,0.895508,-0.367188,-0.108398,0
20030,0.884277,-0.384766,-0.0932617,0
20050,0.885254,-0.385742,-0.0932617,0
20070,0.885742,-0.383301,-0.0883789,0
20090,0.887207,-0.391113,-0.0810547,0
20110,0.887695,-0.375488,-0.0981445,0
20130,0.892578,-0.385742,-0.112793,0
20150,0.913086,-0.384766,-0.115234,0
20170,0.912109,-0.364746,-0.10498,0
20190,0.919434,-0.352539,-0.0957031,0
20210,0.916016,-0.358398,-0.108398,0
20230,0.905273,-0.371582,-0.113281,0
20250,0.916992,-0.351074,-0.11084,0
20270,0.908691,-0.348633,-0.103516,0
20290,0.896484,-0.365234,-0.116211,0
20310,0.897461,-0.365234,-0.119141,0
20330,0.881348,-0.365234,-0.105469,0
20350,0.895996,-0.363281,-0.107422,0
20370,0.918457,-0.336914,-0.123535,0
20390,0.93457,-0.352051,-0.123535,0
20410,0.931641,-0.371094,-0.115723,0
20430,0.916992,-0.355469,-0.123047,0
20450,0.896484,-0.342773,-0.123535,0
20470,0.876953,-0.347168,-0.134277,0
20490,0.874023,-0.356934,-0.132324,0
20510,0.887695,-0.355957,-0.141602,0
20530,0.923828,-0.349121,-0.127441,0
20550,0.904297,-0.349609,-0.11377,0
20570,0.913086,-0.341797,-0.137695,0
20590,0.886719,-0.344238,-0.14209,0
20610,0.882812,-0.342285,-0.121094,0
20630,0.952148,-0.396484,-0.120117,0
20650,0.957031,-0.37207,-0.148438,0
20670,0.935059,-0.367188,-0.109863,0
20690,0.905762,-0.374512,-0.123047,0
20710,0.936035,-0.38916,-0.0991211,0
20730,0.95752,-0.370117,-0.104492,0
20750,0.914062,-0.350586,-0.143066,0
20770,0.869629,-0.32373,-0.169922,0
20790,0.862793,-0.367188,-0.135254,0
20810,0.872559,-0.352539,-0.113281,0
20830,0.893555,-0.288086,-0.106445,0
20850,0.896484,-0.260742,-0.146973,0
20870,0.949219,-0.296875,-0.11084,0
20890,0.95752,-0.32959,-0.0800781,0
20910,0.888672,-0.326172,-0.113281,0
20930,0.86377,-0.337402,-0.128418,0
20950,0.884766,-0.345215,-0.125977,0
20970,0.913574,-0.370605,-0.0942383,0
20990,0.904785,-0.375,-0.111816,0
21010,0.90625,-0.369629,-0.139648,0
21030,0.879395,-0.361328,-0.120117,0
21050,0.888184,-0.393555,-0.11377,0
21070,0.916504,-0.383301,-0.100098,0
21090,0.92627,-0.378418,-0.115234,0
21110,0.881836,-0.376953,-0.123047,0
21130,0.884766,-0.382324,-0.108887,0
21150,0.875488,-0.376953,-0.0805664,0
21170,0.876465,-0.382324,-0.0957031,0
21190,0.929688,-0.409668,-0.0761719,0
21210,0.965332,-0.414551,-0.107422,0
21230,0.884277,-0.472168,-0.151367,0
21250,0.797852,-0.424316,-0.243652,0
21270,0.765137,-0.480957,-0.197754,0
21290,0.800293,-0.48291,-0.128906,0
21310,0.825684,-0.506836,-0.183594,0
21330,0.84668,-0.4375,-0.16748,0
21350,0.868652,-0.405762,-0.174316,0
21370,0.866699,-0.449707,-0.143066,0
21390,0.873535,-0.452148,-0.119629,0
21410,0.891113,-0.455566,-0.113281,0
21430,0.88916,-0.44043,-0.115723,0
21450,0.874512,-0.459961,-0.137207,0
21470,0.873535,-0.465332,-0.14502,0
21490,0.896973,-0.495117,-0.115723,0
21510,0.889648,-0.475586,-0.0942383,0
21530,0.871582,-0.481934,-0.129883,0
21550,0.872559,-0.477539,-0.16748,0
21570,0.868164,-0.47998,-0.154297,0
21590,0.874023,-0.469727,-0.129883,0
21610,0.898926,-0.44873,-0.108398,0
21630,0.901367,-0.417969,-0.138184,0
21650,0.893066,-0.402344,-0.148438,0
21670,0.910156,-0.402344,-0.142578,0
21690,0.878906,-0.411621,-0.134766,0
21710,0.89502,-0.405273,-0.125488,0
21730,0.884277,-0.378418,-0.164551,0
21750,0.862793,-0.350098,-0.151367,0
21770,0.895508,-0.375,-0.169434,0
21790,0.892578,-0.355957,-0.151367,0
21810,0.907715,-0.342285,-0.15625,0
21830,0.873047,-0.344238,-0.154785,0
21850,0.876953,-0.356445,-0.174316,0
21870,0.883301,-0.349609,-0.19043,0
21890,0.896973,-0.308594,-0.192383,0
21910,0.92334,-0.330566,-0.180664,0
21930,0.916016,-0.347168,-0.183105,0
21950,0.927734,-0.359863,-0.180176,0
21970,0.950195,-0.359863,-0.205078,0
21990,0.941406,-0.331055,-0.21582,0
22010,0.950195,-0.322266,-0.186523,0
22030,0.949219,-0.345215,-0.194336,0
22050,0.919922,-0.318848,-0.174316,0
22070,0.911133,-0.324219,-0.198242,0
22090,0.930176,-0.289551,-0.166016,0
22110,0.933105,-0.295898,-0.177734,0
22130,0.904785,-0.295898,-0.206055,0
22150,0.908203,-0.290039,-0.230957,0
22170,0.906738,-0.307129,-0.228516,0
22190,0.88916,-0.301758,-0.22998,0
22210,0.894531,-0.291504,-0.214355,0
22230,0.87793,-0.275879,-0.245117,0
22250,0.871094,-0.29541,-0.260742,0
22270,0.887695,-0.300293,-0.239746,0
22290,0.880371,-0.311523,-0.223145,0
22310,0.881836,-0.323242,-0.23291,0
22320,0.851562,-0.305176,-0.210449,0
22340,0.851074,-0.287109,-0.24707,0
22360,0.842285,-0.28418,-0.231934,0
22380,0.79834,-0.262695,-0.208496,0
22400,0.740723,-0.268555,-0.216309,0
22420,0.72998,-0.285156,-0.158691,0
22440,0.623535,-0.280273,-0.153809,0
22460,0.604492,-0.190918,-0.197266,0
22480,0.684082,-0.261719,-0.203613,0
22500,0.62793,-0.254883,-0.0537109,0
22520,0.570801,-0.205078,0.0253906,0
22540,0.583984,-0.193848,0.00732422,0
22560,0.596191,-0.378418,-0.119629,0
22580,0.660645,-0.397949,0.106445,0
22600,0.607422,-0.396973,0.330078,0
22620,0.569336,-0.461426,0.298828,0
22640,0.669434,-0.649414,0.343262,0
22660,0.579102,-0.608887,0.500488,0
22680,0.563477,-0.634766,0.558105,0
22700,0.481934,-0.76709,0.494629,0
22720,0.508301,-0.903809,0.442383,0
22740,0.617188,-0.942871,0.597656,0
22760,0.44043,-0.779785,0.692871,0
22780,0.0366211,-0.779785,0.561035,0
22800,-0.00732422,-0.806152,0.692871,0
22820,-0.00244141,-0.848633,0.895996,0
22840,-0.0385742,-0.902832,0.751953,0
22860,-0.120605,-1.00635,0.567383,0
22880,-0.334961,-0.924805,0.730469,0
22900,-0.446777,-0.884277,0.779297,0
22920,-0.391113,-0.883789,0.644043,0
22940,-0.370605,-0.905762,0.585449,0
22960,-0.479004,-0.84668,0.614258,0
22980,-0.60791,-0.780762,0.665527,0
23000,-0.589355,-0.791016,0.648438,0
23020,-0.431641,-0.849609,0.649414,0
23040,-0.337402,-0.864746,0.57959,0
23060,-0.28418,-0.775879,0.551758,0
23080,-0.318848,-0.674316,0.591797,0
23100,-0.37207,-0.605469,0.540527,0
23120,-0.336426,-0.572754,0.516602,0
23140,-0.366211,-0.634277,0.535156,0
23160,-0.415039,-0.67334,0.560059,0
23180,-0.404785,-0.66748,0.572754,0
23200,-0.413574,-0.772461,0.565918,0
23220,-0.415527,-0.728027,0.571777,0
23240,-0.411621,-0.640625,0.575684,0
23260,-0.405762,-0.641113,0.567383,0
23280,-0.387695,-0.642578,0.562988,0
23300,-0.404785,-0.637207,0.545898,0
23320,-0.439453,-0.643555,0.513672,0
23340,-0.459961,-0.59375,0.55127,0
23360,-0.464844,-0.543457,0.602539,0
23380,-0.399902,-0.5625,0.59082,0
23400,-0.348633,-0.586914,0.573242,0
23420,-0.417969,-0.57666,0.599121,0
23440,-0.520996,-0.618164,0.615723,0
23460,-0.505371,-0.662109,0.654297,0
23480,-0.405762,-0.748535,0.636719,0
23500,-0.371094,-0.73877,0.61377,0
23520,-0.393066,-0.662109,0.613281,0
23540,-0.415039,-0.577148,0.648926,0
23560,-0.404785,-0.644043,0.628906,0
23580,-0.368652,-0.678711,0.581543,0
23600,-0.411621,-0.63916,0.615234,0
23620,-0.504395,-0.639648,0.608887,0
23640,-0.529297,-0.703125,0.561035,0
23660,-0.459473,-0.726074,0.60498,0
23680,-0.34375,-0.667969,0.614746,0
23700,-0.314453,-0.635742,0.622559,0
23720,-0.426758,-0.516113,0.683594,0
23740,-0.433594,-0.533691,0.691406,0
23760,-0.322754,-0.591309,0.662109,0
23780,-0.319824,-0.618652,0.767578,0
23800,-0.32666,-0.638184,0.763184,0
23820,-0.228516,-0.638672,0.741211,0
23840,-0.269043,-0.589844,0.855957,0
23860,-0.26123,-0.516602,0.789062,0
23880,-0.131348,-0.47998,0.693848,0
23900,-0.090332,-0.422363,0.728027,0
23920,-0.140625,-0.51416,0.806152,0
23940,-0.142578,-0.584961,0.839355,0
23960,-0.0268555,-0.57959,0.807617,0
23980,0.0444336,-0.510254,0.664551,0
23990,-0.0488281,-0.454102,0.708984,0
23990,-0.119141,-0.427734,0.800781,0
24020,-0.0219727,-0.481934,0.720703,0
24050,0.0605469,-0.538086,0.73877,0
24070,-0.0644531,-0.453125,0.527344,0
24090,0.0981445,-0.536621,0.820801,0
24110,-0.0292969,-0.483398,0.669922,0
24130,-0.271973,-0.632324,1.06934,0
24150,0.0830078,-0.532227,0.90918,0
24170,0.564941,-0.433594,0.758789,0
24190,0.884766,-0.37207,0.664551,0
24210,0.978027,-0.345215,0.691895,0
24230,0.861328,-0.412598,0.873047,0
24250,0.185547,-0.563965,1.04248,0
24270,-1.0083,-0.687012,0.725098,0
24290,0.208984,-0.340332,0.494629,0
24310,-0.250488,-0.618652,1.01709,0
24330,0.623047,-0.342285,0.700684,0
24350,-0.71875,-0.601562,0.432617,0
24370,0.0610352,-0.664551,1.00928,0
24390,0.774414,-0.456543,1.1499,0
24410,0.716309,-0.320312,0.927734,0
24430,0.477051,-0.347168,0.714844,0
24450,0.304688,-0.395996,0.637207,0
24470,0.329102,-0.37793,0.717773,0
24490,0.543945,-0.32666,0.924805,0
24510,0.765625,-0.344238,1.2002,0
24530,0.635254,-0.535645,1.27441,0
24550,-0.177734,-0.760254,0.683105,0
24570,-0.550293,-0.602051,0.120117,0
24590,0.478027,-0.238281,0.989746,0
24610,0.400879,-0.581055,1.23096,0
24630,-0.469727,-0.702637,0.0541992,0
24650,0.688477,-0.300781,1.28857,0
24670,-0.555176,-0.79541,0.412598,0
24690,0.263184,-0.281738,1.0083,0
24710,-0.448242,-0.8125,0.429688,0
24730,0.577148,-0.283203,1.25781,0
24750,-0.652832,-0.812012,-0.0131836,0
24770,0.457031,-0.439941,1.65625,0
24790,0.146973,-0.41748,0.496582,0
24810,-0.567383,-0.814453,0.00292969,0
24830,0.348633,-0.462891,1.5918,0
24850,0.525879,-0.328613,0.995117,0
24870,-0.405273,-0.732422,-0.271973,0
24890,-0.0429688,-0.625,0.981934,0
24910,0.647949,-0.229004,1.65332,0
24930,-0.157227,-0.547363,0.153809,0
24950,-0.521484,-0.859863,0.197266,0
24970,0.464355,-0.4375,1.70361,0
24990,0.504883,-0.269531,1.03271,0
25010,-0.453125,-0.695801,-0.27002,0
25030,0.618652,-0.37207,0.643066,0
25050,0.354004,-0.567383,0.930664,0
25070,0.0893555,-0.535645,0.754883,0
25090,0.0673828,-0.552734,0.758301,0
25110,0.0639648,-0.542969,0.755371,0
25130,0.0395508,-0.529297,0.772949,0
25150,0.0644531,-0.51709,0.672363,0
25170,-0.579102,-0.583496,0.404297,0
25190,0.211914,-0.348633,0.605469,0
25210,-0.504395,-0.814453,0.0893555,0
25230,0.324219,-0.464844,1.59473,0
25250,0.637207,-0.227539,1.4126,0
25270,-0.12207,-0.552246,-0.0297852,0
25290,-0.541016,-0.828613,-0.0356445,0
25310,0.162598,-0.529785,1.42969,0
25330,0.693848,-0.216309,1.63379,0
25350,-0.310547,-0.53418,0.151367,0
25370,0.342285,-0.401855,0.57666,0
25390,0.149902,-0.506836,0.76709,0
25410,0.0610352,-0.499512,0.757812,0
25430,0.0419922,-0.517578,0.765137,0
25450,0.0375977,-0.521484,0.762207,0
25470,0.0385742,-0.528809,0.758301,0
25490,0.0439453,-0.535645,0.753418,0
25510,0.0517578,-0.526855,0.767578,0
25530,0.050293,-0.536621,0.752441,0
25550,0.0546875,-0.533691,0.756836,0
25570,0.0595703,-0.541016,0.764648,0
25590,0.0576172,-0.537109,0.760742,0
25610,0.0527344,-0.530762,0.756836,0
25630,0.0537109,-0.539551,0.761719,0
25650,0.0629883,-0.531738,0.762695,0
25670,0.0517578,-0.533691,0.763672,0
25690,0.0458984,-0.537109,0.756836,0
25710,0.0454102,-0.535156,0.758789,0
25730,0.0478516,-0.537598,0.76416,0
25750,0.0478516,-0.527344,0.754883,0
25770,0.046875,-0.526855,0.750488,0
25790,0.0429688,-0.532715,0.75293,0
25810,0.0463867,-0.525391,0.757812,0
25830,0.0371094,-0.51709,0.757324,0
25850,0.0375977,-0.520996,0.757812,0
25870,0.0361328,-0.516602,0.75293,0
25890,0.0322266,-0.511719,0.758301,0
25910,0.03125,-0.502441,0.770508,0
25930,0.015625,-0.506836,0.76709,0
25950,0.0175781,-0.514648,0.753906,0
25970,0.0078125,-0.51416,0.763672,0
25990,-0.00439453,-0.506836,0.761719,0
26010,-0.000488281,-0.514648,0.752441,0
26030,0.0131836,-0.521973,0.75293,0
26050,0.00683594,-0.524902,0.74707,0
26070,0.00634766,-0.538086,0.755859,0
26090,0.0244141,-0.533203,0.759277,0
26110,0.0273438,-0.538086,0.753906,0
26130,0.0307617,-0.543945,0.756836,0
26150,0.0375977,-0.536133,0.741699,0
26170,0.0380859,-0.531738,0.740723,0
26190,0.0200195,-0.514648,0.739258,0
26210,0.00976562,-0.498535,0.750977,0
26230,0,-0.484863,0.763672,0
26250,-0.00439453,-0.491699,0.771484,0
26270,-0.00732422,-0.491699,0.783203,0
26290,-0.00830078,-0.505371,0.77832,0
26310,-0.0170898,-0.522461,0.791504,0
26330,-0.0185547,-0.538574,0.783691,0
26350,-0.0234375,-0.53418,0.79248,0
26370,-0.0439453,-0.525879,0.787598,0
26390,-0.0463867,-0.530273,0.789551,0
26410,-0.0419922,-0.529785,0.780762,0
26430,-0.0488281,-0.532715,0.781738,0
26450,-0.0405273,-0.526367,0.777344,0
26470,-0.0380859,-0.526855,0.782227,0
26490,-0.0371094,-0.518066,0.774902,0
26510,-0.0302734,-0.500488,0.782227,0
26530,-0.0405273,-0.496094,0.786621,0
26550,-0.0341797,-0.477051,0.779785,0
26570,-0.0405273,-0.481934,0.778809,0
26590,-0.0395508,-0.47998,0.788574,0
26610,-0.0439453,-0.471191,0.793945,0
26630,-0.0498047,-0.48291,0.780762,0
26650,-0.0395508,-0.486816,0.787598,0
26670,-0.0297852,-0.48291,0.787109,0
26690,-0.0288086,-0.487305,0.788574,0
26710,-0.0292969,-0.489746,0.787598,0
26730,-0.0336914,-0.487793,0.786621,0
26750,-0.0371094,-0.48291,0.783203,0
26770,-0.0405273,-0.483887,0.794922,0
26790,-0.0405273,-0.479004,0.794434,0
26810,-0.0390625,-0.483887,0.802734,0
26830,-0.0366211,-0.480957,0.804688,0
26850,-0.0395508,-0.487305,0.807129,0
26870,-0.0224609,-0.489258,0.796875,0
26890,-0.0141602,-0.477051,0.805664,0
26910,-0.0200195,-0.470703,0.793457,0
26930,-0.0112305,-0.487793,0.783203,0
26950,-0.000488281,-0.475586,0.788086,0
26970,-0.0146484,-0.478516,0.794434,0
26990,-0.0297852,-0.473633,0.79541,0
27010,-0.0390625,-0.486816,0.787598,0
27030,-0.0517578,-0.477051,0.789062,0
27050,-0.0727539,-0.485352,0.787109,0
27070,-0.0810547,-0.499023,0.786621,0
27090,-0.074707,-0.508301,0.771973,0
27110,-0.0751953,-0.519531,0.777344,0
27130,-0.0908203,-0.516602,0.771484,0
27150,-0.0922852,-0.490234,0.774902,0
27170,-0.0893555,-0.468262,0.78418,0
27190,-0.0737305,-0.453613,0.779785,0
27210,-0.0571289,-0.486328,0.772949,0
27230,-0.0551758,-0.507324,0.766602,0
27250,-0.0444336,-0.504395,0.777832,0
27270,-0.043457,-0.502441,0.790039,0
27290,-0.0336914,-0.512695,0.779785,0
27310,-0.0302734,-0.510742,0.774902,0
27330,-0.0258789,-0.51416,0.776367,0
27350,-0.0205078,-0.509766,0.787109,0
27370,-0.0297852,-0.511719,0.786621,0
27390,-0.0366211,-0.501465,0.791504,0
27410,-0.0288086,-0.489746,0.798828,0
27430,-0.0263672,-0.472168,0.803711,0
27450,-0.0258789,-0.460938,0.787598,0
27470,-0.0253906,-0.444336,0.794922,0
27480,-0.0288086,-0.413086,0.821777,0
27500,-0.0141602,-0.430176,0.79834,0
27520,-0.0141602,-0.442871,0.789062,0
27540,-0.0136719,-0.425293,0.794434,0
27560,-0.0209961,-0.398926,0.809082,0
27580,-0.0151367,-0.390137,0.793457,0
27600,-0.00732422,-0.39502,0.797852,0
27620,-0.00341797,-0.400879,0.798828,0
27640,-0.00732422,-0.391113,0.799316,0
27660,-0.0219727,-0.399902,0.794434,0
27680,-0.0200195,-0.400879,0.793457,0
27700,-0.0102539,-0.392578,0.789062,0
27720,-0.000488281,-0.379395,0.784668,0
27740,-0.00878906,-0.373535,0.794922,0
27760,-0.0214844,-0.383789,0.818848,0
27780,-0.0297852,-0.383789,0.841797,0
27800,-0.0356445,-0.390137,0.842773,0
27820,-0.0551758,-0.402832,0.841797,0
27840,-0.0708008,-0.416016,0.843262,0
27860,-0.0947266,-0.443359,0.827637,0
27880,-0.105957,-0.442383,0.823242,0
27900,-0.112793,-0.45459,0.844238,0
27920,-0.122559,-0.452637,0.831543,0
27940,-0.138184,-0.456543,0.812988,0
27960,-0.145996,-0.449707,0.812988,0
27980,-0.149414,-0.453613,0.830078,0
28000,-0.166016,-0.473145,0.819336,0
28020,-0.182617,-0.477051,0.811523,0
28040,-0.188965,-0.467285,0.802246,0
28060,-0.181641,-0.460449,0.805176,0
28080,-0.18457,-0.46875,0.802734,0
28100,-0.199219,-0.470215,0.78418,0
28120,-0.197266,-0.446777,0.782715,0
28140,-0.196777,-0.442871,0.777344,0
28160,-0.189941,-0.430176,0.785156,0
28180,-0.186035,-0.44873,0.784668,0
28200,-0.19873,-0.44873,0.763184,0
28220,-0.208984,-0.444824,0.775391,0
28240,-0.212891,-0.45752,0.791016,0
28260,-0.201172,-0.476562,0.78125,0
28280,-0.205078,-0.476562,0.789551,0
28300,-0.209473,-0.468262,0.795898,0
28320,-0.215332,-0.475098,0.802246,0
28340,-0.225098,-0.477051,0.794922,0
28360,-0.242676,-0.477539,0.793945,0
28380,-0.254883,-0.468262,0.788086,0
28400,-0.255371,-0.466797,0.792969,0
28420,-0.254883,-0.455566,0.791504,0
28440,-0.257324,-0.460449,0.774414,0
28460,-0.252441,-0.461426,0.775879,0
28480,-0.250488,-0.453613,0.777832,0
28500,-0.247559,-0.458496,0.773438,0
28520,-0.246094,-0.456055,0.765137,0
28540,-0.246094,-0.457031,0.759766,0
28560,-0.245605,-0.45166,0.763672,0
28580,-0.248047,-0.452637,0.761719,0
28600,-0.250977,-0.450684,0.767578,0
28620,-0.240234,-0.462402,0.773438,0
28640,-0.236328,-0.473633,0.78125,0
28660,-0.22998,-0.475586,0.776855,0
28680,-0.220703,-0.458496,0.79248,0
28700,-0.217773,-0.472656,0.789551,0
28720,-0.221191,-0.475098,0.787109,0
28740,-0.223633,-0.470215,0.78418,0
28760,-0.228516,-0.459961,0.797363,0
28780,-0.244141,-0.458008,0.786133,0
28800,-0.251465,-0.466797,0.787109,0
28820,-0.251953,-0.464844,0.790527,0
28840,-0.253418,-0.465332,0.778809,0
28860,-0.265137,-0.465332,0.779785,0
28880,-0.270996,-0.458008,0.772949,0
28900,-0.253906,-0.470703,0.771973,0
28920,-0.25293,-0.478027,0.766602,0
28940,-0.253906,-0.472168,0.755859,0
28960,-0.247559,-0.480957,0.755371,0
28980,-0.240234,-0.469727,0.768066,0
29000,-0.245117,-0.467285,0.756836,0
29020,-0.242676,-0.467285,0.767578,0
29040,-0.25,-0.46582,0.739746,0
29060,-0.288574,-0.477539,0.739258,0
29080,-0.26709,-0.516113,0.754883,0
29100,-0.191406,-0.520996,0.752441,0
29120,-0.206543,-0.474121,0.793457,0
29140,-0.234375,-0.450195,0.788086,0
29160,-0.190918,-0.48291,0.781738,0
29180,-0.164062,-0.530762,0.805664,0
29200,-0.19043,-0.493652,0.800293,0
29220,-0.223145,-0.45166,0.772461,0
29240,-0.275879,-0.44873,0.760742,0
29260,-0.273438,-0.509277,0.783691,0
29280,-0.191895,-0.53125,0.775391,0
29300,-0.168457,-0.498535,0.740723,0
29320,-0.225586,-0.463867,0.740234,0
29340,-0.256836,-0.449707,0.754395,0
29360,-0.200684,-0.47168,0.775879,0
29370,-0.145508,-0.496582,0.74707,0
29390,-0.19043,-0.496094,0.741211,0
29410,-0.248047,-0.45752,0.72998,0
29430,-0.308594,-0.429199,0.750977,0
29450,-0.30127,-0.470215,0.783691,0
29470,-0.226562,-0.491211,0.781738,0
29490,-0.213379,-0.495117,0.768555,0
29510,-0.251953,-0.478516,0.784668,0
29530,-0.248047,-0.44873,0.796387,0
29550,-0.227539,-0.491211,0.770508,0
29570,-0.189941,-0.470215,0.76123,0
29590,-0.192871,-0.455566,0.755859,0
29610,-0.234375,-0.450195,0.76709,0
29630,-0.244629,-0.460938,0.778809,0
29650,-0.22168,-0.455078,0.770996,0
29670,-0.236328,-0.479492,0.753418,0
29690,-0.283691,-0.488281,0.749512,0
29710,-0.29248,-0.483398,0.76709,0
29730,-0.272461,-0.486816,0.786621,0
29750,-0.230469,-0.497559,0.80127,0
29770,-0.214844,-0.506348,0.789551,0
29790,-0.248047,-0.5,0.801758,0
29810,-0.253418,-0.501465,0.794922,0
29830,-0.234375,-0.479492,0.779785,0
29850,-0.18457,-0.481445,0.750488,0
29870,-0.136719,-0.460938,0.739258,0
29890,-0.170898,-0.462891,0.76416,0
29910,-0.21582,-0.460938,0.787109,0
29930,-0.213379,-0.48584,0.800781,0
29950,-0.193848,-0.474121,0.787598,0
29970,-0.192871,-0.453125,0.778809,0
29990,-0.191406,-0.453613,0.779297,0
30010,-0.19873,-0.456055,0.764648,0
30030,-0.191406,-0.444336,0.768066,0
30050,-0.187012,-0.447266,0.771484,0
30070,-0.193359,-0.444824,0.768066,0
30090,-0.199219,-0.445801,0.77002,0
30110,-0.188965,-0.446289,0.775391,0
30130,-0.202637,-0.449707,0.785156,0
30150,-0.204102,-0.454102,0.786133,0
30170,-0.205078,-0.456055,0.788086,0
30190,-0.201172,-0.462402,0.789551,0
30210,-0.205566,-0.453125,0.785156,0
30230,-0.20459,-0.460938,0.790039,0
30250,-0.20752,-0.466309,0.780762,0
30270,-0.200195,-0.46582,0.790039,0
30290,-0.207031,-0.467773,0.783203,0
30310,-0.209961,-0.463867,0.784668,0
30330,-0.210449,-0.464355,0.78125,0
30350,-0.20752,-0.452637,0.779785,0
30370,-0.215332,-0.456055,0.779297,0
30390,-0.222656,-0.462402,0.779297,0
30410,-0.228027,-0.459473,0.785645,0
30430,-0.233887,-0.456055,0.78418,0
30450,-0.227539,-0.448242,0.77832,0
30470,-0.225586,-0.450195,0.77832,0
30490,-0.239258,-0.45459,0.771973,0
30510,-0.242188,-0.450684,0.787598,0
30530,-0.236328,-0.440918,0.785645,0
30550,-0.240723,-0.434082,0.777344,0
30570,-0.242676,-0.434082,0.771973,0
30590,-0.246094,-0.442871,0.770508,0
30610,-0.250977,-0.442383,0.791992,0
30630,-0.249023,-0.43457,0.769531,0
30650,-0.241211,-0.442383,0.749512,0
30670,-0.253418,-0.430176,0.754395,0
30690,-0.286621,-0.432129,0.780762,0
30710,-0.306152,-0.4375,0.769531,0
30730,-0.306152,-0.442383,0.759277,0
30750,-0.321777,-0.455566,0.751465,0
30770,-0.353516,-0.467773,0.758789,0
30790,-0.35791,-0.476074,0.759277,0
30810,-0.333496,-0.463379,0.748047,0
30830,-0.347656,-0.460449,0.770996,0
30850,-0.36377,-0.462402,0.76123,0
30870,-0.360352,-0.447754,0.753418,0
30890,-0.342773,-0.436035,0.743164,0
30910,-0.335938,-0.438965,0.731934,0
30930,-0.344238,-0.451172,0.734863,0
30950,-0.35791,-0.450195,0.76709,0
30970,-0.347656,-0.446289,0.757324,0
30990,-0.329102,-0.481445,0.749023,0
31010,-0.380371,-0.461914,0.744629,0
31030,-0.394531,-0.439941,0.753418,0
31050,-0.388672,-0.41748,0.740723,0
31070,-0.418457,-0.429199,0.761719,0
31090,-0.468262,-0.436035,0.77002,0
31110,-0.445801,-0.460449,0.766113,0
31130,-0.400391,-0.431152,0.741211,0
31150,-0.409668,-0.382812,0.735352,0
31170,-0.438477,-0.371582,0.748535,0
31190,-0.432129,-0.388672,0.741699,0
31210,-0.416992,-0.400391,0.740723,0
31230,-0.429199,-0.389648,0.741699,0
31250,-0.436523,-0.381836,0.747559,0
31270,-0.439941,-0.400391,0.75,0
31290,-0.436035,-0.405762,0.762695,0
31310,-0.438477,-0.39209,0.760742,0
31330,-0.436523,-0.402832,0.746582,0
31350,-0.428711,-0.408691,0.737305,0
31370,-0.438965,-0.39209,0.728027,0
31390,-0.437012,-0.394531,0.733398,0
31410,-0.428223,-0.394531,0.731445,0
31430,-0.430664,-0.393555,0.743652,0
31450,-0.446777,-0.391113,0.743164,0
31470,-0.456055,-0.384277,0.741211,0
31490,-0.452148,-0.402344,0.735352,0
31510,-0.448242,-0.397461,0.731934,0
31530,-0.443848,-0.399414,0.731445,0
31550,-0.442871,-0.410645,0.728027,0
31570,-0.452637,-0.413086,0.735352,0
31590,-0.460449,-0.412598,0.731934,0
31610,-0.460449,-0.410645,0.72998,0
31630,-0.456543,-0.405273,0.72168,0
31650,-0.459473,-0.406738,0.728516,0
31670,-0.453125,-0.421875,0.717285,0
31690,-0.446777,-0.428223,0.720703,0
31710,-0.458984,-0.415039,0.717773,0
31730,-0.45752,-0.414062,0.719238,0
31750,-0.45166,-0.411621,0.717773,0
31770,-0.457031,-0.405273,0.701172,0
31790,-0.45752,-0.388672,0.714844,0
31810,-0.451172,-0.397461,0.723633,0
31830,-0.443848,-0.405273,0.730957,0
31850,-0.45459,-0.407227,0.733887,0
31870,-0.45166,-0.424316,0.725098,0
31890,-0.447266,-0.431641,0.730469,0
31910,-0.446777,-0.415527,0.739746,0
31930,-0.449707,-0.400391,0.738281,0
31950,-0.447754,-0.39209,0.740723,0
31970,-0.454102,-0.379395,0.746582,0
31990,-0.459961,-0.357422,0.745117,0
32010,-0.458008,-0.361816,0.730469,0
32030,-0.444824,-0.373535,0.741211,0
32050,-0.459961,-0.37207,0.740234,0
32070,-0.461426,-0.370605,0.734375,0
32090,-0.445801,-0.37793,0.741211,0
32110,-0.442383,-0.383301,0.738281,0
32130,-0.439941,-0.394043,0.748535,0
32150,-0.433594,-0.390625,0.755371,0
32170,-0.436523,-0.395996,0.758301,0
32190,-0.441406,-0.397949,0.745117,0
32210,-0.449219,-0.385254,0.747559,0
32230,-0.455078,-0.352051,0.73584,0
32250,-0.458984,-0.341309,0.734863,0
32270,-0.458008,-0.347656,0.739258,0
32290,-0.455566,-0.367188,0.748535,0
32310,-0.450684,-0.372559,0.743652,0
32330,-0.439453,-0.388184,0.748047,0
32350,-0.432129,-0.40332,0.75293,0
32370,-0.445801,-0.390625,0.755859,0
32390,-0.459473,-0.380371,0.742676,0
32410,-0.465332,-0.382812,0.73291,0
32430,-0.461426,-0.377441,0.736816,0
32450,-0.453613,-0.362793,0.736816,0
32470,-0.447754,-0.381348,0.732422,0
32490,-0.441406,-0.386719,0.738281,0
32510,-0.443848,-0.388184,0.741211,0
32530,-0.443359,-0.394043,0.740234,0
32550,-0.441406,-0.393555,0.733887,0
32570,-0.441406,-0.399902,0.738281,0
32590,-0.453613,-0.392578,0.732422,0
32610,-0.457031,-0.402832,0.726562,0
32630,-0.45166,-0.398926,0.737793,0
32650,-0.445801,-0.38623,0.741211,0
32660,-0.439941,-0.390625,0.73877,0
32680,-0.443848,-0.388672,0.733887,0
32700,-0.451172,-0.385254,0.742676,0
32720,-0.451172,-0.371582,0.748535,0
32740,-0.447754,-0.375488,0.745117,0
32760,-0.450684,-0.38623,0.75293,0
32780,-0.471191,-0.401855,0.747559,0
32800,-0.430664,-0.408203,0.755371,0
32820,-0.417969,-0.395508,0.739258,0
32840,-0.444336,-0.391602,0.733398,0
32860,-0.458496,-0.402832,0.725098,0
32880,-0.444824,-0.388184,0.719238,0
32900,-0.444824,-0.397461,0.712402,0
32920,-0.452148,-0.403809,0.712891,0
32940,-0.456543,-0.394043,0.712891,0
32960,-0.441406,-0.387695,0.724609,0
32980,-0.433594,-0.395508,0.731445,0
33000,-0.441406,-0.414551,0.740234,0
33020,-0.432129,-0.439453,0.740234,0
33040,-0.431152,-0.448242,0.745117,0
33060,-0.445312,-0.436523,0.735352,0
33080,-0.446289,-0.42334,0.735352,0
33100,-0.45166,-0.397461,0.746094,0
33120,-0.45166,-0.379883,0.722656,0
33140,-0.441895,-0.387207,0.724121,0
33160,-0.437012,-0.395996,0.719238,0
33180,-0.432129,-0.395996,0.728027,0
33200,-0.437988,-0.410645,0.729004,0
33220,-0.445312,-0.418457,0.740723,0
33240,-0.458008,-0.413574,0.745605,0
33260,-0.452637,-0.403809,0.747559,0
33280,-0.439941,-0.393555,0.739258,0
33300,-0.431152,-0.399902,0.740234,0
33320,-0.442871,-0.388184,0.73877,0
33340,-0.445801,-0.388672,0.742188,0
33360,-0.445801,-0.387695,0.73584,0
33380,-0.449219,-0.391602,0.725098,0
33400,-0.449219,-0.399902,0.733887,0
33420,-0.442383,-0.391113,0.738281,0
33440,-0.442871,-0.399902,0.734863,0
33460,-0.4375,-0.411621,0.734863,0
33480,-0.435059,-0.416992,0.744141,0
33500,-0.437988,-0.427246,0.731445,0
33520,-0.45166,-0.412598,0.737793,0
33540,-0.458496,-0.403809,0.734863,0
33560,-0.453613,-0.408691,0.72998,0
33580,-0.460449,-0.395996,0.718262,0
33600,-0.454102,-0.396484,0.725586,0
33620,-0.447754,-0.395508,0.733398,0
33640,-0.443359,-0.406738,0.726562,0
33660,-0.436035,-0.420898,0.720703,0
33680,-0.43457,-0.424805,0.730957,0
33700,-0.450195,-0.419434,0.722168,0
33720,-0.452148,-0.413086,0.720215,0
33740,-0.437012,-0.429199,0.72168,0
33760,-0.445312,-0.431641,0.718262,0
33780,-0.447754,-0.430664,0.717773,0
33800,-0.436035,-0.433105,0.729492,0
33820,-0.445312,-0.419434,0.736816,0
33840,-0.456543,-0.405762,0.732422,0
33860,-0.450195,-0.401367,0.725586,0
33880,-0.441895,-0.401367,0.73291,0
33900,-0.443848,-0.396484,0.722656,0
33920,-0.44873,-0.407227,0.727539,0
33940,-0.454102,-0.418457,0.740234,0
33960,-0.461426,-0.402832,0.737305,0
33980,-0.469238,-0.377441,0.734375,0
34000,-0.450195,-0.389648,0.728516,0
34020,-0.441895,-0.404785,0.724121,0
34040,-0.44043,-0.40332,0.71582,0
34060,-0.430176,-0.411133,0.718262,0
34080,-0.420898,-0.427734,0.739746,0
34100,-0.435547,-0.433105,0.748535,0
34120,-0.451172,-0.435059,0.739258,0
34140,-0.450195,-0.441406,0.735352,0
34160,-0.45166,-0.410645,0.720703,0
34180,-0.463867,-0.37793,0.712891,0
34200,-0.460938,-0.370117,0.702148,0
34220,-0.460938,-0.369141,0.711426,0
34240,-0.477051,-0.371582,0.731934,0
34260,-0.458008,-0.383789,0.725098,0
34280,-0.421875,-0.426758,0.731934,0
34300,-0.414062,-0.45166,0.753418,0
34320,-0.430176,-0.442871,0.745605,0
34340,-0.447754,-0.438965,0.737305,0
34360,-0.44043,-0.417969,0.735352,0
34380,-0.442871,-0.39209,0.739258,0
34400,-0.456055,-0.362305,0.746094,0
34420,-0.462402,-0.349609,0.737305,0
34440,-0.458984,-0.384766,0.72168,0
34460,-0.454102,-0.400879,0.724609,0
34480,-0.44873,-0.397461,0.733398,0
34500,-0.44873,-0.39209,0.744141,0
34520,-0.452637,-0.398926,0.745605,0
34540,-0.458008,-0.40918,0.744141,0
34550,-0.462402,-0.392578,0.732422,0
34570,-0.44873,-0.391113,0.728516,0
34590,-0.441895,-0.413574,0.725586,0
34610,-0.444824,-0.428223,0.724609,0
34630,-0.44043,-0.439941,0.719238,0
34650,-0.446289,-0.416504,0.726562,0
34670,-0.456543,-0.404297,0.726074,0
34690,-0.445801,-0.398926,0.730469,0
34710,-0.443359,-0.402344,0.727539,0
34730,-0.457031,-0.399414,0.733887,0
34750,-0.45459,-0.40332,0.724121,0
34770,-0.439453,-0.428711,0.725098,0
34790,-0.454102,-0.413086,0.728516,0
34810,-0.467773,-0.386719,0.721191,0
34830,-0.435059,-0.413574,0.722168,0
34850,-0.429688,-0.431641,0.731934,0
34870,-0.456543,-0.417969,0.733398,0
34890,-0.458496,-0.402832,0.723145,0
34910,-0.452148,-0.400879,0.725586,0
34930,-0.45166,-0.401367,0.714355,0
34950,-0.453125,-0.394043,0.718262,0
34970,-0.450684,-0.399414,0.72998,0
34990,-0.447754,-0.424805,0.737793,0
35010,-0.456543,-0.42334,0.75,0
35030,-0.477051,-0.400391,0.730469,0
35050,-0.459961,-0.388184,0.728027,0
35070,-0.453613,-0.385742,0.713867,0
35090,-0.444336,-0.409668,0.707031,0
35110,-0.42334,-0.431152,0.723633,0
35130,-0.44043,-0.434082,0.745605,0
35150,-0.458008,-0.424805,0.744629,0
35170,-0.453125,-0.40918,0.739258,0
35190,-0.455566,-0.393555,0.728516,0
35210,-0.461914,-0.381836,0.717285,0
35230,-0.459473,-0.380371,0.723145,0
35250,-0.459473,-0.385742,0.721191,0
35270,-0.453125,-0.408203,0.72998,0
35290,-0.449707,-0.406738,0.726562,0
35310,-0.451172,-0.404785,0.73877,0
35330,-0.451172,-0.404297,0.731445,0
35350,-0.442871,-0.418457,0.725098,0
35370,-0.451172,-0.431152,0.723145,0
35390,-0.458496,-0.408691,0.727539,0
35410,-0.455078,-0.395996,0.736816,0
35430,-0.450684,-0.394043,0.723633,0
35450,-0.446777,-0.400391,0.716309,0
35470,-0.448242,-0.395508,0.730957,0
35490,-0.45752,-0.384766,0.722168,0
35510,-0.449707,-0.421387,0.71582,0
35530,-0.448242,-0.436523,0.724609,0
35550,-0.458008,-0.417969,0.724121,0
35570,-0.444824,-0.410156,0.725098,0
35590,-0.421875,-0.425293,0.722168,0
35610,-0.427246,-0.434082,0.723633,0
35630,-0.455078,-0.42334,0.737793,0
35650,-0.463379,-0.385742,0.73877,0
35670,-0.450195,-0.382324,0.746582,0
35690,-0.456543,-0.370117,0.752441,0
35710,-0.475098,-0.373047,0.736328,0
35730,-0.470215,-0.381836,0.743652,0
35750,-0.458984,-0.384766,0.73291,0
35770,-0.435059,-0.397461,0.742188,0
35790,-0.431641,-0.397949,0.752441,0
35810,-0.441406,-0.394531,0.752441,0
35830,-0.431152,-0.411133,0.737793,0
35850,-0.439453,-0.393066,0.760254,0
35870,-0.458496,-0.397461,0.741211,0
35890,-0.455078,-0.416504,0.729492,0
35910,-0.451172,-0.404297,0.73584,0
35930,-0.446777,-0.380371,0.762207,0
35950,-0.428223,-0.39502,0.76709,0
35970,-0.39209,-0.447754,0.77002,0
35990,-0.367676,-0.422852,0.853516,0
36010,-0.424805,-0.523438,0.825195,0
36030,-0.394531,-0.528809,0.828125,0
36050,-0.336426,-0.510742,0.843262,0
36070,-0.308105,-0.48584,0.858887,0
36090,-0.280762,-0.46582,0.842773,0
36110,-0.23584,-0.496094,0.829102,0
36130,-0.18457,-0.520996,0.815918,0
36150,-0.12793,-0.528809,0.830078,0
36170,-0.0947266,-0.508789,0.83252,0
36190,-0.0839844,-0.496582,0.826172,0
36210,-0.0888672,-0.467773,0.82666,0
36230,-0.0688477,-0.442383,0.800781,0
36250,-0.100586,-0.433105,0.806152,0
36270,-0.0908203,-0.452637,0.798828,0
36290,-0.0537109,-0.506836,0.790039,0
36310,-0.0405273,-0.510742,0.776855,0
36330,0.00244141,-0.487793,0.718262,0
36350,0.00488281,-0.476562,0.733398,0
36370,-0.00488281,-0.488281,0.755859,0
36390,0.0117188,-0.500488,0.741211,0
36410,0.0268555,-0.54248,0.718262,0
36430,0.019043,-0.54834,0.734375,0
36450,0.0258789,-0.596191,0.736328,0
36470,0.0576172,-0.627441,0.743652,0
36490,0.132812,-0.612793,0.727539,0
36510,0.139648,-0.594238,0.728516,0
36530,0.118652,-0.567871,0.733398,0
36550,0.120605,-0.554199,0.711914,0
36570,0.166016,-0.583008,0.692383,0
36590,0.162598,-0.571777,0.683105,0
36610,0.123535,-0.575684,0.666016,0
36630,0.105957,-0.598145,0.650879,0
36650,0.113281,-0.564941,0.651855,0
36670,0.097168,-0.568848,0.649414,0
36690,0.112793,-0.588379,0.655762,0
36710,0.143066,-0.620117,0.643555,0
36730,0.154297,-0.623047,0.623535,0
36750,0.13623,-0.632324,0.623535,0
36770,0.131348,-0.616699,0.633789,0
36790,0.17334,-0.626953,0.619629,0
36810,0.223633,-0.632812,0.631348,0
36830,0.251953,-0.624023,0.625488,0
36850,0.249512,-0.651367,0.608398,0
36870,0.272949,-0.667969,0.633789,0
36890,0.288574,-0.648438,0.649414,0
36910,0.27832,-0.623535,0.619629,0
36930,0.279297,-0.631836,0.61084,0
36950,0.248535,-0.603027,0.620117,0
36970,0.229492,-0.598633,0.58252,0
36990,0.292969,-0.626953,0.589844,0
37010,0.282227,-0.625977,0.598633,0
37030,0.248535,-0.612305,0.583008,0
37050,0.269043,-0.618652,0.576172,0
37070,0.274902,-0.617676,0.571289,0
37090,0.269043,-0.669434,0.575195,0
37110,0.283691,-0.682617,0.582031,0
37130,0.280273,-0.668457,0.595215,0
37150,0.266113,-0.671875,0.58252,0
37170,0.250488,-0.636719,0.598145,0
37190,0.263184,-0.623047,0.581543,0
37210,0.277832,-0.617188,0.57373,0
37230,0.250488,-0.623535,0.60498,0
37250,0.225098,-0.633301,0.598633,0
37270,0.209473,-0.642578,0.602051,0
37290,0.22998,-0.674805,0.608887,0
37310,0.281738,-0.696289,0.601562,0
37330,0.269531,-0.695801,0.598145,0
37350,0.248047,-0.689453,0.628418,0
37370,0.275879,-0.680176,0.621094,0
37390,0.30957,-0.684082,0.616699,0
37410,0.308105,-0.680176,0.625488,0
37430,0.291504,-0.678223,0.614746,0
37450,0.286621,-0.672852,0.617188,0
37470,0.291504,-0.65625,0.604492,0
37490,0.286133,-0.65332,0.618652,0
37510,0.292969,-0.652344,0.605957,0
37530,0.300293,-0.635254,0.592285,0
37550,0.271484,-0.63916,0.594238,0
37570,0.236816,-0.641113,0.586914,0
37590,0.229492,-0.646484,0.577637,0
37610,0.23291,-0.633301,0.567383,0
37630,0.232422,-0.630371,0.597168,0
37650,0.234375,-0.615723,0.63623,0
37670,0.256348,-0.618164,0.611328,0
37690,0.260254,-0.632324,0.614258,0
37710,0.258301,-0.641602,0.618652,0
37730,0.276855,-0.652832,0.62207,0
37750,0.27832,-0.665039,0.620117,0
37770,0.272461,-0.677246,0.619629,0
37790,0.283691,-0.671875,0.638672,0
37810,0.271973,-0.676758,0.604492,0
37820,0.270508,-0.678711,0.609863,0
37840,0.279785,-0.658691,0.610352,0
37860,0.276855,-0.643555,0.615723,0
37880,0.279785,-0.641113,0.620117,0
37900,0.292969,-0.62793,0.630859,0
37920,0.295898,-0.619629,0.636719,0
37940,0.277832,-0.633301,0.606445,0
37960,0.27832,-0.628906,0.606934,0
37980,0.273926,-0.626953,0.61377,0
38000,0.255371,-0.625,0.610352,0
38020,0.266113,-0.630859,0.602051,0
38040,0.28125,-0.627441,0.619629,0
38060,0.268555,-0.637695,0.620117,0
38080,0.253906,-0.654785,0.630371,0
38100,0.263184,-0.648438,0.627441,0
38120,0.277832,-0.63916,0.615723,0
38140,0.261719,-0.640137,0.624512,0
38160,0.253418,-0.640137,0.615723,0
38180,0.262695,-0.645996,0.624512,0
38200,0.270508,-0.637207,0.625977,0
38220,0.257324,-0.640137,0.620117,0
38240,0.257324,-0.633301,0.629883,0
38260,0.268066,-0.630859,0.609863,0
38280,0.272461,-0.648926,0.622559,0
38300,0.263672,-0.64209,0.630371,0
38320,0.27002,-0.652832,0.625977,0
38340,0.285645,-0.65332,0.617188,0
38360,0.280762,-0.646484,0.626953,0
38380,0.271484,-0.655762,0.623047,0
38400,0.29248,-0.657715,0.611328,0
38420,0.29541,-0.650391,0.624023,0
38440,0.276367,-0.640625,0.619629,0
38460,0.269043,-0.64209,0.619629,0
38480,0.27832,-0.639648,0.616699,0
38500,0.272949,-0.641602,0.608887,0
38520,0.262695,-0.633301,0.610352,0
38540,0.269043,-0.633301,0.617188,0
38560,0.271973,-0.634277,0.616699,0
38580,0.270996,-0.645996,0.611816,0
38600,0.254395,-0.648438,0.625488,0
38620,0.253906,-0.648926,0.618164,0
38640,0.271484,-0.637695,0.605957,0
38660,0.258301,-0.62793,0.616211,0
38680,0.253906,-0.631836,0.604004,0
38700,0.262695,-0.645508,0.603027,0
38720,0.255371,-0.643066,0.615723,0
38740,0.248535,-0.652344,0.611328,0
38760,0.253906,-0.655762,0.604004,0
38780,0.223145,-0.638672,0.609375,0
38800,0.227539,-0.622559,0.622559,0
38820,0.262695,-0.623047,0.614746,0
38840,0.257812,-0.642578,0.623047,0
38860,0.249023,-0.658203,0.617676,0
38880,0.266602,-0.67334,0.619141,0
38900,0.274414,-0.645996,0.616211,0
38920,0.262695,-0.63916,0.620605,0
38940,0.263672,-0.632324,0.617676,0
38960,0.269531,-0.638672,0.619629,0
38980,0.286621,-0.641113,0.616211,0
39000,0.262695,-0.639648,0.608887,0
39020,0.230469,-0.624023,0.630371,0
39040,0.242188,-0.616699,0.62793,0
39060,0.250488,-0.624023,0.615723,0
39080,0.239746,-0.626953,0.608887,0
39100,0.244141,-0.59668,0.624023,0
39120,0.248535,-0.614746,0.633301,0
39140,0.270508,-0.626953,0.617188,0
39160,0.271973,-0.628906,0.626953,0
39180,0.260254,-0.605957,0.617188,0
39200,0.250977,-0.611328,0.641602,0
39220,0.270996,-0.644531,0.623535,0
39240,0.310547,-0.650879,0.637207,0
39260,0.32959,-0.635254,0.663574,0
39280,0.335449,-0.63623,0.644043,0
39300,0.322754,-0.620117,0.634766,0
39320,0.301758,-0.608398,0.633789,0
39340,0.310059,-0.618652,0.633789,0
39360,0.302246,-0.600098,0.645996,0
39380,0.273926,-0.581543,0.629883,0
39400,0.248047,-0.571289,0.624512,0
39420,0.241699,-0.569824,0.638672,0
39440,0.237793,-0.57666,0.642578,0
39460,0.228027,-0.57373,0.640137,0
39480,0.26416,-0.606445,0.632812,0
39500,0.300293,-0.600098,0.651855,0
39520,0.30127,-0.603027,0.66748,0
39540,0.281738,-0.592773,0.668945,0
39560,0.289551,-0.599121,0.652832,0
39580,0.328125,-0.615234,0.671387,0
39600,0.364746,-0.624512,0.681641,0
39620,0.36084,-0.605957,0.673828,0
39640,0.353027,-0.586914,0.65625,0
39660,0.362305,-0.588867,0.658691,0
39680,0.398438,-0.586426,0.677734,0
39700,0.368164,-0.580078,0.669434,0
39710,0.32666,-0.562012,0.663574,0
39730,0.337891,-0.577637,0.653809,0
39750,0.37793,-0.602539,0.645996,0
39770,0.431641,-0.59082,0.664062,0
39790,0.463867,-0.56543,0.665527,0
39810,0.504395,-0.584473,0.640137,0
39830,0.54248,-0.605957,0.616699,0
39850,0.552734,-0.588379,0.623535,0
39870,0.518555,-0.591309,0.605957,0
39890,0.488281,-0.609863,0.630859,0
39910,0.447266,-0.570801,0.634766,0
39930,0.411621,-0.557617,0.623535,0
39950,0.362793,-0.571289,0.629395,0
39970,0.310059,-0.545898,0.625977,0
39990,0.26709,-0.540527,0.625977,0
40010,0.226562,-0.555176,0.627441,0
40030,0.16748,-0.555664,0.617676,0
40050,0.13916,-0.575684,0.632812,0
40070,0.159668,-0.625,0.598633,0
40090,0.175781,-0.629883,0.632324,0
40110,0.144531,-0.600586,0.663574,0
40130,0.157715,-0.584961,0.660156,0
40150,0.246094,-0.57959,0.65918,0
40170,0.280762,-0.580566,0.672363,0
40190,0.279785,-0.592773,0.639648,0
40210,0.27832,-0.629883,0.626465,0
40230,0.295898,-0.605469,0.624023,0
40250,0.288574,-0.578613,0.631348,0
40270,0.302734,-0.571777,0.625,0
40290,0.333496,-0.577637,0.615723,0
40310,0.314453,-0.59668,0.621094,0
40330,0.294434,-0.631836,0.639648,0
40350,0.310059,-0.623535,0.641602,0
40370,0.30127,-0.60791,0.647461,0
40390,0.289062,-0.599609,0.65332,0
40410,0.28418,-0.606934,0.64209,0
40430,0.274414,-0.593262,0.646973,0
40450,0.290527,-0.596191,0.650879,0
40470,0.293457,-0.600586,0.635254,0
40490,0.276367,-0.595215,0.637695,0
40510,0.274902,-0.583496,0.650391,0
40530,0.280762,-0.568359,0.646973,0
40550,0.306641,-0.577148,0.639648,0
40570,0.339844,-0.588867,0.639648,0
40590,0.357422,-0.592285,0.64209,0
40610,0.321289,-0.595703,0.646973,0
40630,0.280273,-0.592773,0.631348,0
40650,0.26709,-0.596191,0.63623,0
40670,0.280273,-0.580078,0.637695,0
40690,0.275879,-0.57666,0.634766,0
40710,0.259277,-0.550781,0.64209,0
40730,0.251953,-0.555664,0.628906,0
40750,0.275879,-0.566895,0.634277,0
40770,0.296875,-0.567871,0.642578,0
40790,0.338867,-0.602051,0.640625,0
40810,0.378906,-0.604492,0.666992,0
40830,0.394043,-0.601562,0.661621,0
40850,0.383301,-0.589355,0.662598,0
40870,0.374512,-0.588867,0.664062,0
40890,0.367676,-0.61084,0.651367,0
40910,0.356934,-0.621094,0.671875,0
40930,0.373535,-0.598145,0.663574,0
40950,0.34375,-0.562988,0.657227,0
40970,0.294922,-0.546387,0.638672,0
40990,0.282227,-0.544434,0.628418,0
41010,0.278809,-0.547852,0.633301,0
41030,0.257324,-0.569336,0.63623,0
41050,0.277344,-0.566895,0.661133,0
41070,0.335938,-0.537598,0.674805,0
41090,0.390625,-0.556152,0.660645,0
41110,0.437988,-0.591309,0.698242,0
41130,0.478027,-0.57959,0.712402,0
41150,0.500977,-0.575684,0.663574,0
41170,0.473145,-0.565918,0.659668,0
41190,0.45166,-0.577637,0.644531,0
41210,0.441406,-0.581055,0.639648,0
41230,0.43457,-0.585449,0.648926,0
41250,0.435547,-0.574707,0.631348,0
41270,0.420898,-0.562012,0.625977,0
41290,0.343262,-0.583496,0.646973,0
41310,0.276367,-0.562012,0.615723,0
41330,0.271973,-0.571777,0.621582,0
41350,0.268066,-0.548828,0.630371,0
41370,0.211914,-0.557617,0.638672,0
41390,0.189453,-0.552246,0.652832,0
41410,0.200195,-0.550781,0.670898,0
41430,0.203613,-0.57373,0.659668,0
41450,0.205566,-0.557617,0.668945,0
41470,0.219727,-0.54834,0.692383,0
41490,0.254883,-0.556641,0.666992,0
41510,0.270508,-0.533691,0.674805,0
41530,0.279785,-0.525879,0.666016,0
41550,0.335449,-0.569336,0.636719,0
41570,0.327148,-0.578125,0.634277,0
41590,0.300781,-0.564941,0.652832,0
41610,0.341309,-0.578613,0.645996,0
41630,0.367676,-0.573242,0.647949,0
41650,0.378418,-0.565918,0.648438,0
41670,0.355957,-0.605957,0.648926,0
41690,0.312012,-0.588379,0.654297,0
41710,0.285645,-0.555664,0.660156,0
41730,0.273438,-0.544922,0.625,0
41750,0.228027,-0.556641,0.609863,0
41770,0.160156,-0.589355,0.647949,0
41790,0.149902,-0.555664,0.669922,0
41810,0.203125,-0.538086,0.658203,0
41830,0.230469,-0.499023,0.643066,0
41850,0.217285,-0.490234,0.655762,0
41870,0.258789,-0.519043,0.671387,0
41890,0.293945,-0.533203,0.678223,0
41910,0.322754,-0.563965,0.676758,0
41930,0.324219,-0.572266,0.683594,0
41950,0.398438,-0.589355,0.707031,0
41970,0.477051,-0.570801,0.71582,0
41990,0.480957,-0.58252,0.713379,0
42010,0.493652,-0.587402,0.70459,0
42030,0.515625,-0.59668,0.696777,0
42050,0.535156,-0.580566,0.700195,0
42070,0.51123,-0.572754,0.693359,0
42090,0.479004,-0.57959,0.689941,0
42110,0.451172,-0.569336,0.689941,0
42130,0.37793,-0.533203,0.685059,0
42150,0.351074,-0.528809,0.673828,0
42170,0.368164,-0.537598,0.668945,0
42190,0.362305,-0.537598,0.650391,0
42210,0.313965,-0.539062,0.679688,0
42230,0.306152,-0.529297,0.648438,0
42250,0.297852,-0.519043,0.638672,0
42270,0.263672,-0.533691,0.656738,0
42290,0.214844,-0.500977,0.640625,0
42310,0.17041,-0.533691,0.65625,0
42330,0.195312,-0.549316,0.615723,0
42350,0.175293,-0.538574,0.631348,0
42370,0.138672,-0.536621,0.654785,0
42390,0.163086,-0.524902,0.649902,0
42410,0.207031,-0.547852,0.665527,0
42430,0.237793,-0.541992,0.67334,0
42450,0.260254,-0.523438,0.668945,0
42470,0.270996,-0.530762,0.669434,0
42490,0.290039,-0.531738,0.674805,0
42510,0.291504,-0.564453,0.650879,0
42530,0.285645,-0.572266,0.671387,0
42550,0.307617,-0.542969,0.691406,0
42570,0.321289,-0.521484,0.677734,0
42590,0.316406,-0.494629,0.682617,0
42610,0.299805,-0.499023,0.648438,0
42630,0.3125,-0.537598,0.668457,0
42650,0.366699,-0.525391,0.708496,0
42670,0.330078,-0.522461,0.673828,0
42690,0.311523,-0.48291,0.683594,0
42710,0.338867,-0.508301,0.703613,0
42730,0.378906,-0.511719,0.702148,0
42750,0.342285,-0.51416,0.689453,0
42770,0.335449,-0.521484,0.679688,0
42790,0.397461,-0.529785,0.70166,0
42810,0.402344,-0.526855,0.69873,0
42830,0.400879,-0.520508,0.688965,0
42850,0.37207,-0.516602,0.69043,0
42870,0.351562,-0.502441,0.71875,0
42890,0.366699,-0.490723,0.714355,0
42910,0.407227,-0.504395,0.692871,0
42930,0.450195,-0.529297,0.678711,0
42950,0.40625,-0.505371,0.695312,0
42970,0.379883,-0.484863,0.689453,0
42990,0.377441,-0.467285,0.6875,0
43000,0.379395,-0.466309,0.69043,0
43020,0.319336,-0.469727,0.698242,0
43040,0.299316,-0.460938,0.696289,0
43060,0.313965,-0.47168,0.689453,0
43080,0.293945,-0.462402,0.693848,0
43100,0.321289,-0.460449,0.707031,0
43120,0.330078,-0.459473,0.695801,0
43140,0.357422,-0.470215,0.684082,0
43160,0.370117,-0.457031,0.714355,0
43180,0.359375,-0.45459,0.693848,0
43200,0.371094,-0.451172,0.697266,0
43220,0.381348,-0.44873,0.714844,0
43240,0.438477,-0.472168,0.700684,0
43260,0.526367,-0.495605,0.696777,0
43280,0.611328,-0.470703,0.702637,0
43300,0.678711,-0.455566,0.691406,0
43320,0.767578,-0.445312,0.668945,0
43340,0.772461,-0.458008,0.63916,0
43360,0.72998,-0.450684,0.647461,0
43380,0.671387,-0.433105,0.646973,0
43400,0.662598,-0.447266,0.660645,0
43420,0.634766,-0.422363,0.682129,0
43440,0.526855,-0.366699,0.708984,0
43460,0.565918,-0.412598,0.700684,0
43480,0.464844,-0.45166,0.693359,0
43500,0.387695,-0.469727,0.699707,0
43520,0.398438,-0.517578,0.679199,0
43540,0.307129,-0.516113,0.703125,0
43560,0.164551,-0.443359,0.737793,0
43580,0.122559,-0.494629,0.677246,0
43600,0.177734,-0.543457,0.646484,0
43620,0.211914,-0.558105,0.632324,0
43640,0.109863,-0.578613,0.63916,0
43660,0.0170898,-0.611328,0.624023,0
43680,0.0957031,-0.623535,0.603516,0
43700,0.208008,-0.646973,0.60498,0
43720,0.240234,-0.624023,0.616211,0
43740,0.259766,-0.654297,0.633301,0
43760,0.314453,-0.649414,0.62793,0
43780,0.305664,-0.633789,0.616699,0
43800,0.297363,-0.645996,0.603027,0
43820,0.324707,-0.638184,0.601562,0
43840,0.337891,-0.624512,0.589355,0
43860,0.303223,-0.625488,0.561035,0
43880,0.277832,-0.615723,0.555664,0
43900,0.299805,-0.59668,0.584961,0
43920,0.318359,-0.60498,0.562012,0
43940,0.319824,-0.614746,0.587891,0
43960,0.335938,-0.619141,0.605469,0
43980,0.35791,-0.624023,0.595703,0
44000,0.337891,-0.602051,0.596191,0
44020,0.314941,-0.627441,0.583984,0
44040,0.336426,-0.641113,0.585938,0
44060,0.328613,-0.636719,0.594238,0
44080,0.285156,-0.624512,0.577148,0
44100,0.239746,-0.670898,0.567383,0
44120,0.21875,-0.653809,0.598145,0
44140,0.20166,-0.654297,0.601562,0
44160,0.179199,-0.621094,0.61377,0
44180,0.181641,-0.62207,0.597656,0
44200,0.210938,-0.591309,0.609863,0
44220,0.207031,-0.594238,0.594238,0
44240,0.177246,-0.582031,0.605957,0
44260,0.177734,-0.583496,0.612793,0
44280,0.209473,-0.600098,0.647461,0
44300,0.276855,-0.597168,0.632324,0
44320,0.289551,-0.602539,0.617676,0
44340,0.291992,-0.619141,0.633789,0
44360,0.352051,-0.605957,0.686523,0
44380,0.356445,-0.603027,0.648926,0
44400,0.343262,-0.56543,0.652832,0
44420,0.344727,-0.56543,0.649902,0
44440,0.320801,-0.570801,0.685059,0
44460,0.333496,-0.54541,0.675293,0
44480,0.378906,-0.560547,0.644043,0
44500,0.369141,-0.546387,0.649414,0
44520,0.355957,-0.554688,0.685059,0
44540,0.374023,-0.536621,0.680176,0
44560,0.391602,-0.52002,0.65625,0
44580,0.429688,-0.507324,0.685059,0
44600,0.398926,-0.509277,0.691895,0
44620,0.451172,-0.508789,0.669922,0
44640,0.486328,-0.490723,0.651855,0
44660,0.477051,-0.48291,0.668457,0
44680,0.42627,-0.459473,0.664551,0
44700,0.496582,-0.452637,0.671387,0
44720,0.540527,-0.465332,0.644531,0
44740,0.578613,-0.477051,0.637207,0
44760,0.630859,-0.431152,0.666504,0
44780,0.669434,-0.400879,0.663574,0
44800,0.688965,-0.398438,0.654297,0
44820,0.695312,-0.390137,0.666016,0
44840,0.598145,-0.370117,0.670898,0
44860,0.571777,-0.397949,0.677734,0
44880,0.558105,-0.376465,0.685059,0
44890,0.500977,-0.331543,0.667969,0
44910,0.511719,-0.297363,0.686523,0
44930,0.46582,-0.311523,0.702637,0
44950,0.459961,-0.370605,0.70166,0
44970,0.457031,-0.401855,0.70459,0
44990,0.42041,-0.385742,0.714355,0
45010,0.35791,-0.375,0.727051,0
45030,0.35791,-0.390137,0.706543,0
45050,0.364258,-0.404785,0.700684,0
45070,0.364258,-0.410156,0.699219,0
45090,0.347168,-0.414551,0.713867,0
45110,0.321777,-0.433105,0.703125,0
45130,0.29248,-0.451172,0.700195,0
45150,0.300293,-0.462891,0.705566,0
45170,0.319824,-0.488281,0.697266,0
45190,0.354004,-0.508301,0.681641,0
45210,0.350098,-0.498535,0.696777,0
45230,0.367676,-0.517578,0.712891,0
45250,0.407715,-0.531738,0.702148,0
45270,0.446289,-0.532227,0.703613,0
45290,0.475586,-0.517578,0.705566,0
45310,0.505859,-0.529785,0.688477,0
45330,0.539551,-0.510254,0.687012,0
45350,0.534668,-0.527832,0.663574,0
45370,0.538574,-0.532715,0.667969,0
45390,0.502441,-0.537109,0.653809,0
45410,0.485352,-0.561523,0.643555,0
45430,0.441895,-0.561035,0.649902,0
45450,0.387695,-0.549316,0.646973,0
45470,0.357422,-0.561035,0.628906,0
45490,0.295898,-0.591309,0.617188,0
45510,0.242676,-0.569824,0.633301,0
45530,0.219238,-0.596191,0.611816,0
45550,0.208008,-0.621094,0.593262,0
45570,0.135254,-0.635742,0.598633,0
45590,0.0527344,-0.624512,0.586914,0
45610,0.0527344,-0.649414,0.576172,0
45630,0.127441,-0.679199,0.562012,0
45650,0.179199,-0.672363,0.586914,0
45670,0.162598,-0.650391,0.60498,0
45690,0.155273,-0.63916,0.617676,0
45710,0.204102,-0.667969,0.588379,0
45730,0.258301,-0.681152,0.596191,0
45750,0.264648,-0.696777,0.57959,0
45770,0.274902,-0.683594,0.57666,0
45790,0.262207,-0.687012,0.59375,0
45810,0.261719,-0.685547,0.552734,0
45830,0.294434,-0.666016,0.557617,0
45850,0.30127,-0.651367,0.584961,0
45870,0.279297,-0.691895,0.572266,0
45890,0.256348,-0.71875,0.565918,0
45910,0.272461,-0.672852,0.571777,0
45930,0.277344,-0.64209,0.583984,0
45950,0.293457,-0.677734,0.60791,0
45970,0.299316,-0.695801,0.598633,0
45990,0.247559,-0.67334,0.590332,0
46010,0.20459,-0.66748,0.589355,0
46030,0.206055,-0.67334,0.571777,0
46050,0.195801,-0.674316,0.575195,0
46070,0.124023,-0.636719,0.556152,0
46090,0.0478516,-0.611816,0.561035,0
46110,0.034668,-0.600586,0.559082,0
46130,0.0610352,-0.591797,0.614258,0
46150,0.183594,-0.625977,0.621582,0
46170,0.249023,-0.614258,0.626953,0
46190,0.17334,-0.592285,0.635742,0
46210,0.225098,-0.597656,0.644043,0
46230,0.366699,-0.569824,0.671387,0
46250,0.375977,-0.545898,0.660645,0
46270,0.291504,-0.568359,0.644531,0
46290,0.438965,-0.604492,0.681152,0
46310,0.593262,-0.589844,0.672363,0
46330,0.615234,-0.591797,0.637207,0
46350,0.688965,-0.601562,0.631348,0
46370,0.755371,-0.669922,0.617188,0
46390,0.683105,-0.607422,0.599609,0
46410,0.649902,-0.612793,0.607422,0
46430,0.656738,-0.614258,0.632324,0
46450,0.618164,-0.62207,0.60791,0
46470,0.475098,-0.589355,0.625488,0
46490,0.386719,-0.568848,0.635254,0
46510,0.382324,-0.561523,0.627441,0
46530,0.37793,-0.568359,0.617676,0
46550,0.32373,-0.570801,0.612793,0
46570,0.272949,-0.568359,0.628418,0
46590,0.277832,-0.578125,0.628418,0
46610,0.321289,-0.581055,0.618652,0
46630,0.320312,-0.561523,0.620605,0
46650,0.272949,-0.568848,0.608887,0
46670,0.268555,-0.584473,0.611328,0
46690,0.312012,-0.583008,0.615723,0
46710,0.322754,-0.586426,0.61084,0
46730,0.282227,-0.612305,0.59082,0
46750,0.237305,-0.583008,0.604492,0
46770,0.235352,-0.568848,0.625,0
46790,0.243652,-0.59082,0.583984,0
46810,0.229004,-0.612793,0.578125,0
46830,0.193848,-0.640137,0.568359,0
46850,0.158203,-0.60791,0.598633,0
46870,0.162109,-0.610352,0.62793,0
46890,0.212891,-0.64209,0.610352,0
46910,0.227539,-0.619629,0.60791,0
46930,0.208008,-0.600098,0.610352,0
46950,0.23877,-0.617188,0.637207,0
46970,0.257324,-0.631836,0.629883,0
46990,0.22998,-0.575195,0.625488,0
47010,0.206055,-0.563965,0.614746,0
47030,0.199219,-0.608887,0.628906,0
47050,0.266113,-0.63623,0.638672,0
47070,0.32959,-0.616211,0.653809,0
47090,0.296875,-0.57666,0.648926,0
47110,0.283691,-0.552246,0.649902,0
47130,0.36377,-0.573242,0.665527,0
47150,0.431641,-0.554199,0.673828,0
47170,0.359863,-0.553223,0.670898,0
47190,0.368164,-0.542969,0.678711,0
47210,0.36377,-0.519043,0.65625,0
47230,0.358398,-0.47998,0.67627,0
47250,0.388672,-0.47998,0.674805,0
47270,0.42041,-0.523926,0.657715,0
47290,0.42041,-0.507812,0.682129,0
47310,0.360352,-0.508789,0.666504,0
47330,0.430664,-0.553711,0.63916,0
47350,0.532227,-0.558105,0.662598,0
47370,0.550781,-0.564453,0.679688,0
47390,0.524902,-0.588867,0.666992,0
47410,0.569824,-0.587891,0.681641,0
47430,0.624023,-0.572754,0.685547,0
47450,0.598145,-0.545898,0.675293,0
47470,0.523438,-0.573242,0.692871,0
47490,0.45752,-0.591309,0.650391,0
47510,0.430664,-0.546387,0.669434,0
47530,0.449707,-0.523926,0.685547,0
47550,0.411621,-0.508301,0.670898,0
47570,0.37793,-0.550781,0.640137,0
47590,0.375977,-0.511719,0.675293,0
47610,0.280273,-0.498047,0.669922,0
47630,0.294434,-0.52002,0.675293,0
47650,0.342773,-0.537598,0.647461,0
47670,0.334961,-0.55957,0.637207,0
47690,0.299316,-0.531738,0.665039,0
47710,0.270996,-0.522949,0.652832,0
47730,0.318359,-0.540527,0.643555,0
47750,0.315918,-0.507812,0.650391,0
47770,0.273438,-0.551758,0.628906,0
47790,0.296875,-0.558594,0.621582,0
47810,0.303223,-0.551758,0.637207,0
47830,0.29248,-0.558594,0.628906,0
47850,0.283691,-0.556641,0.617188,0
47870,0.277832,-0.561035,0.634277,0
47890,0.313477,-0.550781,0.641602,0
47910,0.338379,-0.564453,0.629883,0
47930,0.338867,-0.595215,0.607422,0
47950,0.354004,-0.560547,0.635254,0
47970,0.356934,-0.559082,0.633301,0
47990,0.370117,-0.577637,0.618652,0
48010,0.394043,-0.578613,0.626465,0
48030,0.370117,-0.575195,0.637695,0
48050,0.353027,-0.566406,0.634277,0
48070,0.359375,-0.579102,0.620117,0
48090,0.374512,-0.57373,0.629883,0
48110,0.344238,-0.568848,0.625,0
48130,0.328613,-0.571777,0.627441,0
48150,0.324219,-0.587891,0.619141,0
48170,0.327148,-0.585449,0.634766,0
48180,0.352539,-0.581055,0.628906,0
48200,0.354492,-0.578125,0.619141,0
48220,0.325195,-0.579102,0.63623,0
48240,0.329102,-0.57959,0.630371,0
48260,0.366211,-0.578125,0.609375,0
48280,0.354492,-0.559082,0.628906,0
48300,0.325684,-0.574219,0.63623,0
48320,0.334473,-0.580566,0.647461,0
48340,0.380859,-0.585449,0.631836,0
48360,0.36377,-0.572754,0.630859,0
48380,0.339355,-0.567871,0.632812,0
48400,0.355469,-0.568848,0.637695,0
48420,0.338867,-0.562988,0.631348,0
48440,0.316406,-0.552734,0.629883,0
48460,0.324219,-0.554199,0.636719,0
48480,0.318359,-0.54834,0.648926,0
48500,0.309082,-0.58252,0.634277,0
48520,0.319336,-0.576172,0.631348,0
48540,0.321289,-0.59082,0.644531,0
48560,0.349121,-0.568848,0.653809,0
48580,0.337891,-0.549316,0.650391,0
48600,0.314453,-0.562012,0.640137,0
48620,0.368164,-0.553223,0.66748,0
48640,0.402832,-0.554688,0.664551,0
48660,0.38916,-0.55957,0.649414,0
48680,0.365723,-0.550293,0.645996,0
48700,0.383789,-0.552246,0.646484,0
48720,0.405762,-0.532227,0.654297,0
48740,0.390625,-0.539062,0.642578,0
48760,0.372559,-0.541992,0.643555,0
48780,0.371582,-0.546387,0.653809,0
48800,0.381348,-0.54834,0.661133,0
48820,0.373535,-0.547852,0.648438,0
48840,0.347656,-0.557129,0.644531,0
48860,0.353516,-0.543945,0.663086,0
48880,0.345703,-0.530762,0.654785,0
48900,0.327148,-0.524414,0.654785,0
48920,0.328613,-0.519531,0.651367,0
48940,0.352051,-0.533203,0.651367,0
48960,0.368652,-0.537109,0.652832,0
48980,0.34668,-0.533203,0.664551,0
49000,0.356934,-0.532227,0.662598,0
49020,0.34668,-0.523926,0.67334,0
49040,0.349609,-0.518555,0.664062,0
49060,0.355469,-0.511719,0.667969,0
49080,0.35791,-0.516602,0.668457,0
49100,0.366211,-0.528809,0.682617,0
49120,0.354492,-0.515137,0.664551,0
49140,0.366211,-0.516602,0.665039,0
49160,0.39209,-0.498047,0.658203,0
49180,0.375977,-0.516602,0.665039,0
49200,0.382324,-0.516113,0.671875,0
49220,0.388184,-0.502441,0.665527,0
49240,0.388184,-0.501953,0.657227,0
49260,0.378418,-0.487793,0.676758,0
49280,0.393066,-0.534668,0.672852,0
49300,0.434082,-0.539551,0.671387,0
49320,0.410645,-0.534668,0.669434,0
49340,0.387207,-0.522949,0.666016,0
49360,0.390625,-0.520508,0.654785,0
49380,0.396484,-0.506348,0.675781,0
49400,0.407227,-0.500488,0.672363,0
49420,0.414551,-0.489746,0.665039,0
49440,0.393066,-0.486816,0.651367,0
49460,0.413574,-0.483887,0.647461,0
49480,0.433594,-0.484375,0.657715,0
49500,0.416992,-0.460938,0.654785,0
49520,0.406738,-0.449219,0.649902,0
49540,0.403809,-0.454102,0.651855,0
49560,0.440918,-0.452148,0.666504,0
49580,0.432617,-0.455078,0.656738,0
49600,0.42041,-0.466797,0.655273,0
49620,0.422852,-0.465332,0.660645,0
49640,0.455566,-0.45752,0.662598,0
49660,0.466797,-0.458008,0.659668,0
49680,0.455566,-0.451172,0.669434,0
49700,0.46875,-0.435547,0.684082,0
49720,0.483887,-0.435547,0.665039,0
49740,0.456543,-0.44043,0.656738,0
49760,0.438477,-0.431641,0.652344,0
49780,0.453125,-0.446289,0.642578,0
49800,0.450195,-0.433594,0.660156,0
49820,0.427734,-0.418945,0.668457,0
49840,0.44873,-0.421387,0.661133,0
49860,0.46875,-0.419922,0.667969,0
49880,0.467773,-0.41748,0.67041,0
49900,0.461914,-0.405273,0.676758,0
49920,0.449219,-0.400391,0.669434,0
49940,0.484863,-0.400391,0.666992,0
49960,0.495605,-0.393555,0.681152,0
49980,0.48877,-0.38916,0.686035,0
50000,0.495605,-0.388672,0.68457,0
50020,0.513184,-0.362793,0.696777,0
50040,0.518066,-0.324707,0.714355,0
50060,0.511719,-0.347656,0.672852,0
50080,0.510254,-0.362793,0.665527,0
50090,0.519043,-0.34375,0.663086,0
50110,0.534668,-0.347168,0.692871,0
50130,0.496094,-0.348633,0.688965,0
50150,0.469727,-0.34668,0.697266,0
50170,0.485352,-0.339844,0.707031,0
50190,0.51416,-0.34082,0.706543,0
50210,0.508789,-0.352051,0.700195,0
50230,0.486328,-0.353516,0.717773,0
50250,0.473633,-0.34375,0.714355,0
50270,0.470703,-0.354004,0.717773,0
50290,0.488281,-0.37207,0.70752,0
50310,0.489746,-0.360352,0.719238,0
50330,0.48877,-0.359863,0.72168,0
50350,0.505371,-0.391602,0.700684,0
50370,0.539062,-0.424805,0.692871,0
50390,0.556152,-0.405762,0.699707,0
50410,0.54541,-0.395996,0.691895,0
50430,0.564453,-0.405762,0.663574,0
50450,0.603516,-0.430664,0.686035,0
50470,0.513672,-0.425781,0.694824,0
50490,0.475586,-0.414062,0.709961,0
50510,0.51709,-0.444824,0.699707,0
50530,0.568848,-0.455566,0.699707,0
50550,0.435059,-0.442383,0.70752,0
50570,0.39209,-0.433594,0.737793,0
50590,0.414062,-0.45752,0.710449,0
50610,0.445801,-0.504883,0.681152,0
50630,0.477051,-0.486816,0.692383,0
50650,0.460938,-0.441406,0.723633,0
50670,0.388672,-0.434082,0.700684,0
50690,0.387695,-0.472168,0.671387,0
50710,0.427734,-0.484863,0.657227,0
50730,0.327637,-0.488281,0.658691,0
50750,0.208984,-0.443848,0.675293,0
50770,0.220703,-0.460449,0.656738,0
50790,0.29248,-0.521484,0.600586,0
50810,0.318359,-0.538574,0.640137,0
50830,0.303711,-0.51709,0.662598,0
50850,0.280273,-0.513184,0.640625,0
50870,0.285645,-0.549316,0.63916,0
50890,0.295898,-0.56543,0.659668,0
50910,0.29834,-0.567383,0.645996,0
50930,0.285156,-0.563477,0.629395,0
50950,0.250977,-0.558105,0.621582,0
50970,0.228516,-0.551758,0.63623,0
50990,0.225098,-0.54834,0.616211,0
51010,0.18457,-0.54248,0.608887,0
51030,0.183594,-0.567383,0.601074,0
51050,0.245605,-0.588379,0.647949,0
51070,0.280762,-0.587891,0.624512,0
51090,0.277344,-0.583984,0.611328,0
51110,0.294434,-0.568848,0.651367,0
51130,0.335938,-0.584473,0.644043,0
51150,0.334961,-0.623047,0.637695,0
51170,0.321289,-0.614258,0.651855,0
51190,0.312012,-0.600586,0.649414,0
51210,0.291016,-0.579102,0.637207,0
51230,0.258789,-0.552734,0.628906,0
51250,0.250977,-0.54248,0.641113,0
51270,0.26416,-0.589844,0.63916,0
51290,0.309082,-0.600098,0.660156,0
51310,0.341797,-0.570312,0.672852,0
51330,0.325684,-0.551758,0.641602,0
51350,0.342773,-0.56543,0.645996,0
51370,0.412598,-0.543457,0.699707,0
51390,0.396973,-0.555176,0.665039,0
51410,0.38916,-0.562012,0.628906,0
51430,0.412598,-0.556641,0.634766,0
51450,0.427734,-0.544922,0.634766,0
51470,0.387207,-0.531738,0.648926,0
51490,0.37207,-0.518066,0.655762,0
51510,0.378418,-0.534668,0.627441,0
51530,0.407715,-0.55957,0.635742,0
51550,0.402832,-0.560059,0.652832,0
51570,0.395996,-0.532227,0.662598,0
51590,0.371094,-0.524902,0.655762,0
51610,0.357422,-0.495117,0.658691,0
51630,0.351562,-0.52002,0.645508,0
51650,0.383301,-0.511719,0.64209,0
51670,0.40332,-0.492676,0.647461,0
51690,0.39502,-0.489746,0.628906,0
51710,0.380859,-0.491699,0.646484,0
51730,0.421387,-0.511719,0.656738,0
51750,0.45166,-0.506836,0.662598,0
51770,0.406738,-0.493652,0.666992,0
51790,0.398438,-0.494141,0.659668,0
51810,0.445312,-0.501953,0.665527,0
51830,0.440918,-0.505371,0.66748,0
51850,0.423828,-0.486328,0.67041,0
51870,0.42041,-0.478027,0.681641,0
51890,0.45166,-0.475098,0.665039,0
51910,0.401855,-0.459473,0.669434,0
51930,0.42334,-0.459961,0.664062,0
51950,0.451172,-0.489258,0.662109,0
51970,0.435547,-0.470215,0.680664,0
51990,0.447266,-0.469238,0.678223,0
52010,0.424316,-0.45166,0.662109,0
52030,0.447754,-0.465332,0.665527,0
52050,0.461914,-0.472168,0.676758,0
52070,0.427246,-0.453125,0.67627,0
52090,0.430664,-0.446777,0.675293,0
52110,0.447754,-0.453125,0.65332,0
52130,0.462402,-0.450195,0.658203,0
52150,0.45459,-0.442383,0.664062,0
52170,0.464844,-0.42627,0.675293,0
52190,0.468262,-0.437012,0.667969,0
52210,0.453125,-0.423828,0.654297,0
52230,0.450684,-0.420898,0.663574,0
52250,0.470703,-0.40918,0.67627,0
52270,0.441406,-0.398926,0.684082,0
52290,0.453125,-0.404785,0.666016,0
52310,0.46875,-0.404297,0.672363,0
52330,0.44873,-0.400879,0.694824,0
52350,0.430664,-0.407715,0.671387,0
52370,0.442383,-0.423828,0.671875,0
52390,0.463379,-0.417969,0.67334,0
52410,0.486328,-0.40918,0.695312,0
52430,0.456543,-0.400879,0.691895,0
52450,0.462402,-0.414551,0.67627,0
52470,0.472656,-0.412598,0.682129,0
52490,0.496094,-0.410156,0.693359,0
52510,0.496094,-0.413574,0.690918,0
52530,0.44873,-0.402832,0.690918,0
52550,0.462891,-0.397949,0.693359,0
52570,0.489258,-0.410156,0.685547,0
52590,0.474609,-0.40625,0.677734,0
52610,0.48584,-0.39209,0.686523,0
52630,0.5,-0.398438,0.6875,0
52650,0.504883,-0.415039,0.663086,0
52670,0.520508,-0.42041,0.661133,0
52690,0.535156,-0.402832,0.676758,0
52710,0.562988,-0.41748,0.666504,0
52730,0.572266,-0.421387,0.655273,0
52750,0.578125,-0.443848,0.644043,0
52770,0.580566,-0.439941,0.654297,0
52790,0.568848,-0.410156,0.651367,0
52810,0.598145,-0.435059,0.63623,0
52830,0.623047,-0.462402,0.632812,0
52850,0.554199,-0.472656,0.65918,0
52870,0.552734,-0.463867,0.686523,0
52890,0.589355,-0.478027,0.664062,0
52910,0.47998,-0.455078,0.655762,0
52930,0.469727,-0.429199,0.681641,0
52950,0.491699,-0.479004,0.666016,0
52970,0.454102,-0.483887,0.688477,0
52990,0.380859,-0.486816,0.708984,0
53010,0.369629,-0.508301,0.673828,0
53030,0.36084,-0.494629,0.678223,0
53050,0.347168,-0.484863,0.669434,0
53070,0.340332,-0.494629,0.667969,0
53090,0.286133,-0.524902,0.651367,0
53110,0.239746,-0.509766,0.671387,0
53130,0.254883,-0.522949,0.644043,0
53150,0.261719,-0.546387,0.618652,0
53170,0.245605,-0.543945,0.645996,0
53190,0.208008,-0.541016,0.617676,0
53210,0.194336,-0.571289,0.604004,0
53230,0.255371,-0.552246,0.643555,0
53250,0.27832,-0.550293,0.63623,0
53270,0.271973,-0.568359,0.611816,0
53290,0.307129,-0.575195,0.632812,0
53310,0.345215,-0.56543,0.63916,0
53330,0.32959,-0.571777,0.616211,0
53350,0.314453,-0.603027,0.616211,0
53370,0.313477,-0.57959,0.640625,0
53380,0.314941,-0.571289,0.615234,0
53400,0.330566,-0.604004,0.605957,0
53420,0.363281,-0.612305,0.616699,0
53440,0.380859,-0.608887,0.629883,0
53460,0.378418,-0.616699,0.631836,0
53480,0.356445,-0.626953,0.620117,0
53500,0.345215,-0.608398,0.640625,0
53520,0.351074,-0.588867,0.631348,0
53540,0.347168,-0.59082,0.613281,0
53560,0.313965,-0.623047,0.609863,0
53580,0.331055,-0.617188,0.60498,0
53600,0.330078,-0.60791,0.617188,0
53620,0.295898,-0.580566,0.608887,0
53640,0.285645,-0.57666,0.606934,0
53660,0.310547,-0.589844,0.616211,0
53680,0.314453,-0.600098,0.620117,0
53700,0.299805,-0.604492,0.631348,0
53720,0.280762,-0.589355,0.625488,0
53740,0.281738,-0.592773,0.619141,0
53760,0.304688,-0.585938,0.625488,0
53780,0.31543,-0.578613,0.621582,0
53800,0.316895,-0.570801,0.62793,0
53820,0.32373,-0.573242,0.636719,0
53840,0.323242,-0.584473,0.623535,0
53860,0.329102,-0.584961,0.628906,0
53880,0.338867,-0.568848,0.627441,0
53900,0.331543,-0.561523,0.621094,0
53920,0.334473,-0.552246,0.657227,0
53940,0.351074,-0.554688,0.650879,0
53960,0.353027,-0.546875,0.634277,0
53980,0.36084,-0.55127,0.636719,0
54000,0.379883,-0.586426,0.628906,0
54020,0.398438,-0.577637,0.64209,0
54040,0.390625,-0.569824,0.63916,0
54060,0.368164,-0.574219,0.62207,0
54080,0.41748,-0.603027,0.615234,0
54100,0.466797,-0.602051,0.619629,0
54120,0.442383,-0.593262,0.626953,0
54140,0.422852,-0.581055,0.615234,0
54160,0.432617,-0.572266,0.60791,0
54180,0.436523,-0.566895,0.618652,0
54200,0.44873,-0.557617,0.611816,0
54220,0.435547,-0.545898,0.611328,0
54240,0.40918,-0.527344,0.61084,0
54260,0.395996,-0.529297,0.606934,0
54280,0.411621,-0.528809,0.599609,0
54300,0.40918,-0.546387,0.589844,0
54320,0.41748,-0.543457,0.611328,0
54340,0.407715,-0.54541,0.609863,0
54360,0.397949,-0.533203,0.602539,0
54380,0.395996,-0.527344,0.623535,0
54400,0.404785,-0.524902,0.624023,0
54420,0.378418,-0.510742,0.628418,0
54440,0.386719,-0.499512,0.625488,0
54460,0.357422,-0.510254,0.600586,0
54480,0.382324,-0.513184,0.613281,0
54500,0.383789,-0.508301,0.629395,0
54520,0.412109,-0.501953,0.649902,0
54540,0.442871,-0.515137,0.623535,0
54560,0.445312,-0.522949,0.623047,0
54580,0.425293,-0.496582,0.633789,0
54600,0.456055,-0.51416,0.61084,0
54620,0.490723,-0.510254,0.633301,0
54640,0.498047,-0.510254,0.633789,0
54660,0.486328,-0.495605,0.652344,0
54680,0.502441,-0.469238,0.670898,0
54700,0.527344,-0.467773,0.64502,0
54720,0.541992,-0.47998,0.624512,0
54740,0.576172,-0.484863,0.624512,0
54760,0.569824,-0.467285,0.643555,0
54780,0.599121,-0.486328,0.628418,0
54800,0.611816,-0.486816,0.627441,0
54820,0.615234,-0.492676,0.625977,0
54840,0.625488,-0.474609,0.638184,0
54860,0.607422,-0.460938,0.628418,0
54880,0.570312,-0.446289,0.637207,0
54900,0.562988,-0.44873,0.635254,0
54920,0.587891,-0.466797,0.632812,0
54940,0.555664,-0.459961,0.64502,0
54960,0.486816,-0.466797,0.659668,0
54980,0.506836,-0.46582,0.667969,0
55000,0.536133,-0.504883,0.650391,0
55020,0.562988,-0.499023,0.678223,0
55040,0.449707,-0.481934,0.687012,0
55060,0.423828,-0.524414,0.65918,0
55080,0.4375,-0.549805,0.662598,0
55100,0.489746,-0.530273,0.681152,0
55120,0.407715,-0.510254,0.678711,0
55140,0.368652,-0.513672,0.674316,0
55160,0.356445,-0.544922,0.657715,0
55180,0.366211,-0.563965,0.63623,0
55200,0.370117,-0.555664,0.640137,0
55220,0.322266,-0.546387,0.640625,0
55240,0.26709,-0.553223,0.614258,0
55260,0.294434,-0.569336,0.617676,0
55280,0.326172,-0.543457,0.603516,0
55290,0.320312,-0.553223,0.600098,0
55310,0.309082,-0.531738,0.630371,0
55330,0.299316,-0.529297,0.626465,0
55350,0.304688,-0.571289,0.593262,0
55370,0.317383,-0.587402,0.604492,0
55390,0.302246,-0.591309,0.607422,0
55410,0.275879,-0.587891,0.583008,0
55430,0.282227,-0.596191,0.583496,0
55450,0.313477,-0.584961,0.631348,0
55470,0.308105,-0.572754,0.596191,0
55490,0.319824,-0.61377,0.589844,0
55510,0.313477,-0.589844,0.601562,0
55530,0.266602,-0.584473,0.586426,0
55550,0.244141,-0.589844,0.585938,0
55570,0.266113,-0.606445,0.565918,0
55590,0.279785,-0.623047,0.616211,0
55610,0.284668,-0.616699,0.631348,0
55630,0.302246,-0.609863,0.609863,0
55650,0.349609,-0.617676,0.598145,0
55670,0.339355,-0.595703,0.629883,0
55690,0.334961,-0.592773,0.638672,0
55710,0.359863,-0.606934,0.619141,0
55730,0.359863,-0.615723,0.603027,0
55750,0.344238,-0.62793,0.592285,0
55770,0.34668,-0.595703,0.60498,0
55790,0.364746,-0.609863,0.605469,0
55810,0.384277,-0.631836,0.602051,0
55830,0.38623,-0.618164,0.612793,0
55850,0.370605,-0.606934,0.616699,0
55870,0.39502,-0.593262,0.614746,0
55890,0.411133,-0.595215,0.596191,0
55910,0.405762,-0.600098,0.597168,0
55930,0.371582,-0.611816,0.596191,0
55950,0.359375,-0.601074,0.610352,0
55970,0.367676,-0.587402,0.606934,0
55990,0.370605,-0.595703,0.589355,0
56010,0.34668,-0.585938,0.593262,0
56030,0.320312,-0.577148,0.589355,0
56050,0.333008,-0.573242,0.609375,0
56070,0.355957,-0.592285,0.607422,0
56090,0.368164,-0.613281,0.601562,0
56110,0.374023,-0.592773,0.616211,0
56130,0.370117,-0.600586,0.61377,0
56150,0.367676,-0.599121,0.625,0
56170,0.358398,-0.591309,0.618652,0
56190,0.376465,-0.595703,0.616211,0
56210,0.365234,-0.57373,0.608887,0
56230,0.355469,-0.557617,0.608887,0
56250,0.375488,-0.579102,0.615234,0
56270,0.372559,-0.578125,0.608398,0
56290,0.361816,-0.568848,0.615723,0
56310,0.360352,-0.541016,0.609375,0
56330,0.397949,-0.550293,0.616211,0
56350,0.401367,-0.57373,0.613281,0
56370,0.402832,-0.562012,0.617676,0
56390,0.370605,-0.554199,0.616699,0
56410,0.372559,-0.540039,0.628906,0
56430,0.384766,-0.55127,0.632324,0
56450,0.405273,-0.547363,0.623047,0
56470,0.464355,-0.559082,0.606445,0
56490,0.501465,-0.549805,0.623047,0
56510,0.519531,-0.550293,0.614258,0
56530,0.559082,-0.551758,0.604492,0
56550,0.605957,-0.566406,0.601562,0
56570,0.637695,-0.541992,0.606445,0
56590,0.657715,-0.530273,0.586426,0
56610,0.682129,-0.539062,0.586426,0
56630,0.663574,-0.541504,0.59375,0
56650,0.57666,-0.532715,0.587402,0
56670,0.54541,-0.523438,0.595703,0
56690,0.539062,-0.524902,0.600098,0
56710,0.527832,-0.531738,0.594727,0
56730,0.466797,-0.534668,0.609863,0
56750,0.359863,-0.518555,0.630371,0
56770,0.341797,-0.531738,0.626465,0
56790,0.38623,-0.578613,0.604004,0
56810,0.38916,-0.592285,0.599121,0
56830,0.347168,-0.582031,0.619629,0
56850,0.307617,-0.584961,0.623535,0
56870,0.323242,-0.602539,0.604492,0
56890,0.364258,-0.609375,0.59082,0
56910,0.327637,-0.597168,0.591797,0
56930,0.286133,-0.568848,0.632324,0
56950,0.284668,-0.557129,0.623535,0
56970,0.308594,-0.569336,0.605469,0
56990,0.335938,-0.593262,0.602051,0
57010,0.337402,-0.615723,0.596191,0
57030,0.335449,-0.602051,0.616699,0
57050,0.347168,-0.575684,0.625488,0
57070,0.366699,-0.587891,0.588867,0
57090,0.365234,-0.560547,0.595703,0
57110,0.358887,-0.574219,0.579102,0
57130,0.375488,-0.592285,0.57373,0
57150,0.385742,-0.605957,0.582031,0
57170,0.378906,-0.586914,0.584961,0
57190,0.367188,-0.584473,0.583008,0
57210,0.374023,-0.592773,0.599121,0
57230,0.385254,-0.593262,0.61084,0
57250,0.380859,-0.596191,0.595703,0
57270,0.362305,-0.609863,0.593262,0
57290,0.367188,-0.601562,0.603027,0
57310,0.375,-0.595703,0.60791,0
57330,0.376953,-0.597656,0.602539,0
57350,0.381348,-0.611328,0.602051,0
57370,0.384277,-0.625488,0.605469,0
57390,0.37793,-0.603516,0.611816,0
57410,0.37793,-0.600586,0.605469,0
57430,0.384277,-0.609863,0.603027,0
57450,0.382812,-0.604004,0.606934,0
57470,0.366699,-0.591309,0.604004,0
57490,0.377441,-0.599609,0.601074,0
57510,0.393555,-0.599121,0.603516,0
57530,0.375,-0.586914,0.601562,0
57550,0.352539,-0.600586,0.588867,0
57570,0.365723,-0.59375,0.601562,0
57590,0.388672,-0.596191,0.605469,0
57610,0.393555,-0.589844,0.602051,0
57630,0.375488,-0.602539,0.597168,0
57650,0.352539,-0.601074,0.590332,0
57670,0.35791,-0.595215,0.608398,0
57690,0.361328,-0.598145,0.607422,0
57710,0.35498,-0.609375,0.592773,0
57730,0.344238,-0.591309,0.602051,0
57750,0.355957,-0.597168,0.60498,0
57770,0.349121,-0.603027,0.604004,0
57790,0.324707,-0.60498,0.612793,0
57810,0.349609,-0.62207,0.60791,0
57830,0.381836,-0.599121,0.605469,0
57850,0.383301,-0.584961,0.613281,0
57870,0.380371,-0.582031,0.605469,0
57890,0.39502,-0.596191,0.599609,0
57910,0.402832,-0.598145,0.599121,0
57930,0.401367,-0.591797,0.609375,0
57950,0.409668,-0.594238,0.595703,0
57970,0.394531,-0.594238,0.603027,0
57990,0.399414,-0.591309,0.603516,0
58010,0.410645,-0.591309,0.598145,0
58030,0.393555,-0.592285,0.592285,0
58050,0.379883,-0.59668,0.594727,0
58070,0.371094,-0.584961,0.604492,0
58090,0.366699,-0.587891,0.60498,0
58110,0.360352,-0.603516,0.613281,0
58130,0.349609,-0.603516,0.59668,0
58150,0.349609,-0.604004,0.601562,0
58170,0.333984,-0.594727,0.611328,0
58190,0.334473,-0.594238,0.615234,0
58210,0.342285,-0.609863,0.609863,0
58230,0.348145,-0.609375,0.607422,0
58250,0.34375,-0.604004,0.60791,0
58270,0.355469,-0.609375,0.611816,0
58290,0.361328,-0.603516,0.625,0
58310,0.360352,-0.586426,0.616699,0
58330,0.361816,-0.596191,0.610352,0
58350,0.36377,-0.592285,0.605957,0
58370,0.379883,-0.596191,0.618652,0
58390,0.390137,-0.597656,0.609863,0
58410,0.380859,-0.585449,0.614258,0
58430,0.381348,-0.583496,0.627441,0
58450,0.400879,-0.588867,0.616211,0
58470,0.394531,-0.586426,0.608887,0
58490,0.375488,-0.585938,0.619141,0
58510,0.370117,-0.587402,0.615723,0
58530,0.384766,-0.570801,0.619141,0
58550,0.381348,-0.564941,0.618164,0
58570,0.374023,-0.564941,0.609863,0
58580,0.365723,-0.586914,0.605957,0
58600,0.382812,-0.577637,0.619629,0
58620,0.378418,-0.571777,0.606445,0
58640,0.393555,-0.568359,0.611328,0
58660,0.391602,-0.587402,0.599121,0
58680,0.392578,-0.571289,0.615234,0
58700,0.432617,-0.553223,0.601074,0
58720,0.44873,-0.567871,0.585449,0
58740,0.45166,-0.603516,0.599609,0
58760,0.407715,-0.582031,0.596191,0
58780,0.412598,-0.592285,0.631836,0
58800,0.4375,-0.600098,0.617188,0
58820,0.404785,-0.629883,0.575684,0
58840,0.342285,-0.64209,0.574219,0
58860,0.324219,-0.634766,0.55957,0
58880,0.319336,-0.631348,0.526855,0
58900,0.307617,-0.639648,0.533203,0
58920,0.301758,-0.672852,0.540039,0
58940,0.336914,-0.693359,0.56543,0
58960,0.291992,-0.662598,0.561523,0
58980,0.289062,-0.661133,0.561035,0
59000,0.329102,-0.693848,0.494141,0
59020,0.335938,-0.734375,0.46582,0
59040,0.319336,-0.737793,0.480469,0
59060,0.313477,-0.714844,0.525391,0
59080,0.293457,-0.659668,0.542969,0
59100,0.296875,-0.65332,0.553711,0
59120,0.319336,-0.671387,0.563965,0
59140,0.317383,-0.644531,0.59082,0
59160,0.307617,-0.63916,0.609375,0
59180,0.291504,-0.637695,0.625977,0
59200,0.297852,-0.612793,0.640137,0
59220,0.310059,-0.600098,0.650879,0
59240,0.306152,-0.620605,0.63916,0
59260,0.29248,-0.643555,0.644531,0
59280,0.27832,-0.633789,0.643066,0
59300,0.283691,-0.644531,0.657227,0
59320,0.289062,-0.653809,0.629883,0
59340,0.274902,-0.643555,0.642578,0
59360,0.303711,-0.618164,0.65332,0
59380,0.329102,-0.637207,0.64209,0
59400,0.359863,-0.671387,0.609863,0
59420,0.382812,-0.682617,0.629883,0
59440,0.365234,-0.668945,0.601074,0
59460,0.37207,-0.67627,0.59668,0
59480,0.391602,-0.666504,0.615234,0
59500,0.356934,-0.67041,0.611328,0
59520,0.329102,-0.681152,0.601562,0
59540,0.380371,-0.6875,0.613281,0
59560,0.352051,-0.655273,0.622559,0
59580,0.304199,-0.638184,0.611328,0
59600,0.336914,-0.634766,0.638672,0
59620,0.364746,-0.643555,0.624512,0
59640,0.347656,-0.645996,0.630859,0
59660,0.291016,-0.66748,0.635254,0
59680,0.286133,-0.628418,0.677246,0
59700,0.307129,-0.625488,0.662598,0
59720,0.306152,-0.63916,0.62207,0
59740,0.251953,-0.591797,0.64209,0
59760,0.197754,-0.574707,0.660156,0
59780,0.222168,-0.578613,0.623047,0
59800,0.251953,-0.57666,0.634277,0
59820,0.261719,-0.562012,0.634277,0
59840,0.267578,-0.568359,0.605957,0
59860,0.265625,-0.587891,0.594727,0
59880,0.272461,-0.582031,0.59668,0
59900,0.288086,-0.568848,0.608887,0
59920,0.308594,-0.599121,0.597168,0
59940,0.336426,-0.605957,0.597168,0
59960,0.332031,-0.602051,0.591797,0
59980,0.306641,-0.614746,0.578125,0
60000,0.297363,-0.60791,0.597168,0
60020,0.307617,-0.606445,0.59375,0
60040,0.319336,-0.636719,0.591797,0
60060,0.311523,-0.642578,0.591309,0
60080,0.275879,-0.631836,0.583984,0
60100,0.254883,-0.637695,0.597168,0
60120,0.294434,-0.641602,0.608398,0
60140,0.315918,-0.635742,0.616211,0
60160,0.297852,-0.635254,0.613281,0
60180,0.295898,-0.630859,0.611816,0
60200,0.32666,-0.625977,0.612793,0
60220,0.336914,-0.617188,0.599121,0
60240,0.312012,-0.613281,0.600586,0
60260,0.314941,-0.616699,0.609375,0
60280,0.340332,-0.634277,0.597168,0
60300,0.336914,-0.62793,0.608398,0
60320,0.320801,-0.602539,0.598633,0
60330,0.345703,-0.616211,0.605469,0
60360,0.376465,-0.632812,0.61084,0
60380,0.359863,-0.625,0.607422,0
60400,0.335938,-0.615723,0.60791,0
60420,0.34668,-0.611328,0.614258,0
60440,0.368164,-0.602539,0.612793,0
60460,0.351074,-0.613281,0.599121,0
60470,0.341797,-0.605469,0.603516,0
60490,0.341309,-0.591797,0.624023,0
60510,0.330078,-0.57959,0.615234,0
60530,0.336426,-0.583984,0.625,0
60550,0.337891,-0.591309,0.616699,0
60570,0.337891,-0.595703,0.620605,0
60590,0.331543,-0.590332,0.609863,0
60610,0.341309,-0.577148,0.61084,0
60630,0.32373,-0.574219,0.611816,0
60650,0.311035,-0.57959,0.618164,0
60670,0.338379,-0.552246,0.635742,0
60690,0.357422,-0.568359,0.639648,0
60710,0.349609,-0.591797,0.63916,0
60730,0.319336,-0.583008,0.648438,0
60750,0.307617,-0.568359,0.662598,0
60770,0.35498,-0.560547,0.666992,0
60790,0.412598,-0.532227,0.747559,0
60810,0.350098,-0.500977,0.722168,0
60830,0.347656,-0.530273,0.67334,0
60850,0.419922,-0.523438,0.676758,0
60870,0.400391,-0.511719,0.699707,0
60890,0.366699,-0.539551,0.677734,0
60910,0.342285,-0.557129,0.67627,0
60930,0.291504,-0.547363,0.672363,0
60950,0.259277,-0.524414,0.696777,0
60970,0.286133,-0.543457,0.730957,0
60990,0.269531,-0.534668,0.735352,0
61010,0.258789,-0.530762,0.716309,0
61030,0.241699,-0.523438,0.70752,0
61050,0.219238,-0.539062,0.741211,0
61070,0.232422,-0.57666,0.739746,0
61090,0.244141,-0.574707,0.71875,0
61110,0.237793,-0.561523,0.729004,0
61130,0.214844,-0.535156,0.736816,0
61150,0.262207,-0.537109,0.730957,0
61170,0.260254,-0.51709,0.727051,0
61190,0.261719,-0.505859,0.700195,0
61210,0.263184,-0.48584,0.697266,0
61230,0.291016,-0.460938,0.712891,0
61250,0.297852,-0.458496,0.726074,0
61270,0.292969,-0.460938,0.711426,0
61290,0.290039,-0.475586,0.744629,0
61310,0.308594,-0.475098,0.690918,0
61330,0.341797,-0.545898,0.687012,0
61340,0.313965,-0.55127,0.707031,0
61360,0.278809,-0.544922,0.665527,0
61380,0.259766,-0.52832,0.662109,0
61400,0.279297,-0.570801,0.623535,0
61420,0.288086,-0.541992,0.629395,0
61440,0.260742,-0.580078,0.615234,0
61460,0.244629,-0.612305,0.64209,0
61480,0.274414,-0.62207,0.686523,0
61500,0.300781,-0.619141,0.653809,0
61520,0.287109,-0.598633,0.672363,0
61540,0.28125,-0.583984,0.672852,0
61560,0.263184,-0.615723,0.646973,0
61580,0.25293,-0.636719,0.644531,0
61600,0.259277,-0.634766,0.699707,0
61620,0.285156,-0.635742,0.642578,0
61640,0.265625,-0.628418,0.655273,0
61660,0.268066,-0.621094,0.640625,0
61680,0.263184,-0.620605,0.652832,0
61700,0.269531,-0.625,0.658203,0
61720,0.28125,-0.622559,0.631836,0
61740,0.275391,-0.603516,0.630859,0
61760,0.256348,-0.59082,0.656738,0
61780,0.262695,-0.591309,0.654297,0
61800,0.257324,-0.594727,0.647461,0
61820,0.270508,-0.580078,0.657227,0
61840,0.281738,-0.581055,0.646484,0
61860,0.29541,-0.577637,0.641113,0
61880,0.268066,-0.587891,0.63916,0
61900,0.263672,-0.607422,0.623535,0
61920,0.277344,-0.634277,0.640137,0
61940,0.280762,-0.610352,0.669434,0
61960,0.276367,-0.62793,0.630371,0
61980,0.290527,-0.638184,0.625488,0
62000,0.308105,-0.595215,0.637207,0
62020,0.30127,-0.640625,0.59668,0
62040,0.259277,-0.65918,0.625,0
62060,0.250977,-0.666016,0.626953,0
62070,0.27832,-0.661133,0.617676,0
62090,0.264648,-0.647461,0.590332,0
62110,0.248047,-0.640137,0.605957,0
62130,0.246094,-0.669434,0.617676,0
62150,0.265625,-0.693848,0.609375,0
62170,0.259277,-0.688477,0.614258,0
62190,0.235352,-0.666992,0.603027,0
62210,0.227051,-0.651855,0.609375,0
62230,0.25,-0.644043,0.602539,0
62250,0.254883,-0.63623,0.597656,0
62270,0.244629,-0.631348,0.602051,0
62290,0.25293,-0.643066,0.591797,0
62310,0.263672,-0.652832,0.587402,0
62330,0.248047,-0.668945,0.592773,0
62350,0.244141,-0.664551,0.616699,0
62370,0.249512,-0.65918,0.599121,0
62390,0.238281,-0.660645,0.603027,0
62410,0.217773,-0.641602,0.617188,0
62430,0.218262,-0.628418,0.621582,0
62450,0.214355,-0.628906,0.609863,0
62480,0.208984,-0.618652,0.643066,0
62500,0.22998,-0.605957,0.677734,0
62520,0.254395,-0.594727,0.665039,0
62540,0.252441,-0.597168,0.646973,0
62570,0.278809,-0.54834,0.70752,0
62580,0.285645,-0.550293,0.695801,0
62600,0.281738,-0.554688,0.689453,0
62620,0.317383,-0.53125,0.706055,0
62640,0.325195,-0.503906,0.738281,0
62660,0.322754,-0.504395,0.711914,0
62680,0.311523,-0.485352,0.711914,0
62700,0.341797,-0.480469,0.741699,0
62720,0.364258,-0.453613,0.759277,0
62740,0.379883,-0.438477,0.750488,0
62760,0.378418,-0.432617,0.731934,0
62780,0.362305,-0.428223,0.732422,0
62800,0.373047,-0.426758,0.745117,0
62820,0.377441,-0.394531,0.756348,0
62840,0.383789,-0.374512,0.742676,0
62860,0.386719,-0.335449,0.758789,0
62880,0.387695,-0.347168,0.749512,0
62900,0.39209,-0.368652,0.714844,0
62920,0.397461,-0.373535,0.734863,0
62940,0.384766,-0.363281,0.75,0
62960,0.390625,-0.356445,0.746094,0
62980,0.386719,-0.338867,0.734375,0
63000,0.383301,-0.331543,0.737793,0
63020,0.39502,-0.337402,0.746582,0
63040,0.398926,-0.365723,0.737305,0
63060,0.377441,-0.365234,0.73584,0
63080,0.367188,-0.375488,0.743164,0
63100,0.370605,-0.368164,0.745605,0
63120,0.369141,-0.379395,0.733887,0
63140,0.376953,-0.385254,0.744629,0
63160,0.349609,-0.384277,0.744629,0
63180,0.351074,-0.389648,0.739746,0
63200,0.349609,-0.397949,0.73291,0
63220,0.344727,-0.399414,0.722168,0
63240,0.333496,-0.399414,0.720215,0
63260,0.306641,-0.417969,0.701172,0
63280,0.276855,-0.425781,0.690918,0
63300,0.247559,-0.428223,0.67041,0
63320,0.203613,-0.423828,0.657715,0
63340,0.197754,-0.400879,0.696289,0
63360,0.182129,-0.358398,0.722656,0
63380,0.177246,-0.359863,0.683105,0
63400,0.192871,-0.362793,0.685059,0
63420,0.0957031,-0.365234,0.706543,0
63440,0.111328,-0.351074,0.782715,0
63460,0.130859,-0.330078,0.808105,0
63480,0.190918,-0.399414,0.77002,0
63500,0.137695,-0.423828,0.773926,0
63520,0.102539,-0.333984,0.873047,0
63540,0.0981445,-0.345215,0.812988,0
63560,0.119141,-0.326172,0.830566,0
63580,0.0419922,-0.351074,0.914551,0
63600,0.0209961,-0.356934,0.920898,0
63620,0.0141602,-0.432617,0.821777,0
63640,0.0307617,-0.424805,0.82666,0
63660,-0.0605469,-0.361816,0.943359,0
63680,-0.200195,-0.40625,0.904785,0
63690,-0.305664,-0.490234,0.82959,0
63710,-0.337891,-0.518555,0.856445,0
63730,-0.36377,-0.504395,0.834961,0
63750,-0.399902,-0.509766,0.821289,0
63770,-0.453613,-0.491699,0.784668,0
63790,-0.520996,-0.489258,0.800293,0
63810,-0.562012,-0.535645,0.868652,0
63830,-0.666992,-0.553711,0.895508,0
63850,-0.552246,-0.443848,0.827637,0
63870,-0.314453,-0.440918,0.684082,0
63890,-0.356934,-0.445801,0.688965,0
63910,-0.45752,-0.42334,0.664062,0
63930,-0.518555,-0.34668,0.671387,0
63950,-0.530762,-0.3125,0.697754,0
63970,-0.500488,-0.333008,0.717773,0
63990,-0.51709,-0.355957,0.749512,0
64010,-0.520508,-0.376465,0.76416,0
64030,-0.492188,-0.375488,0.766602,0
64050,-0.454102,-0.368164,0.755859,0
64070,-0.457031,-0.382812,0.75293,0
64090,-0.491211,-0.381836,0.748535,0
64110,-0.473633,-0.353027,0.724609,0
64130,-0.449707,-0.386719,0.704102,0
64150,-0.459961,-0.394531,0.711914,0
64170,-0.494141,-0.35498,0.731445,0
64190,-0.522461,-0.334473,0.748047,0
64210,-0.503418,-0.342285,0.756836,0
64230,-0.463379,-0.345215,0.74707,0
64250,-0.443848,-0.364746,0.730469,0
64270,-0.478516,-0.356934,0.73877,0
64290,-0.501953,-0.337402,0.741211,0
64310,-0.502441,-0.324707,0.756348,0
64330,-0.48584,-0.327148,0.754395,0
64350,-0.476074,-0.33252,0.75,0
64370,-0.477051,-0.329102,0.75293,0
64390,-0.482422,-0.325684,0.753906,0
64410,-0.479492,-0.322754,0.76123,0
64430,-0.480957,-0.314941,0.753418,0
64450,-0.479492,-0.320801,0.754395,0
64470,-0.482422,-0.319824,0.748535,0
64490,-0.490234,-0.320312,0.746582,0
64510,-0.491699,-0.324707,0.741211,0
64530,-0.487793,-0.325684,0.739258,0
64550,-0.48291,-0.329102,0.746094,0
64570,-0.477539,-0.32666,0.747559,0
64590,-0.479004,-0.330078,0.751953,0
64610,-0.479492,-0.330078,0.749023,0
64630,-0.480469,-0.328125,0.750488,0
64650,-0.47998,-0.325684,0.746094,0
64670,-0.483398,-0.328125,0.742676,0
64690,-0.48291,-0.328125,0.749023,0
64710,-0.483398,-0.328125,0.745117,0
64730,-0.481934,-0.330078,0.742188,0
64750,-0.485352,-0.32666,0.750977,0
64770,-0.48584,-0.330078,0.748535,0
64790,-0.483398,-0.330078,0.746582,0
64810,-0.481445,-0.32959,0.741699,0
64830,-0.483398,-0.321289,0.749023,0
64850,-0.485352,-0.324219,0.748047,0
64870,-0.483887,-0.322266,0.740723,0
64890,-0.476074,-0.32373,0.750488,0
64910,-0.47998,-0.320801,0.759766,0
64930,-0.484375,-0.310059,0.755859,0
64950,-0.480469,-0.315918,0.755371,0
64970,-0.478027,-0.317871,0.752441,0
64990,-0.469727,-0.32373,0.75293,0
65010,-0.476562,-0.313965,0.754883,0
65030,-0.478027,-0.312988,0.756836,0
65050,-0.473633,-0.310059,0.762207,0
65070,-0.473633,-0.311035,0.761719,0
65090,-0.476562,-0.310547,0.76123,0
65110,-0.476074,-0.305664,0.761719,0
65130,-0.476562,-0.306152,0.754395,0
65150,-0.472656,-0.308105,0.759766,0
65170,-0.476074,-0.308594,0.763672,0
65190,-0.476074,-0.305664,0.759766,0
65210,-0.475098,-0.308105,0.757324,0
65230,-0.470703,-0.312012,0.761719,0
65250,-0.47168,-0.305176,0.766602,0
65270,-0.475098,-0.30127,0.763672,0
65290,-0.473633,-0.300781,0.760742,0
65310,-0.47168,-0.303223,0.758301,0
65330,-0.47168,-0.309082,0.762207,0
65350,-0.470703,-0.309082,0.759277,0
65370,-0.470703,-0.30957,0.763184,0
65390,-0.470703,-0.309082,0.766113,0
65410,-0.473145,-0.311035,0.759766,0
65430,-0.471191,-0.310547,0.763184,0
65450,-0.472656,-0.306152,0.76123,0
65470,-0.472656,-0.307617,0.759766,0
65490,-0.480957,-0.302246,0.758789,0
65510,-0.48291,-0.305176,0.756348,0
65530,-0.476074,-0.311035,0.753906,0
65550,-0.475098,-0.31543,0.755859,0
65570,-0.478027,-0.313965,0.757324,0
65590,-0.473633,-0.314941,0.755371,0
65610,-0.469238,-0.315918,0.751953,0
65620,-0.470215,-0.314941,0.759766,0
65640,-0.472656,-0.310547,0.758789,0
65660,-0.480469,-0.310547,0.757812,0
65680,-0.474121,-0.312988,0.750977,0
65700,-0.473145,-0.318848,0.754883,0
65720,-0.475586,-0.315918,0.75293,0
65740,-0.477539,-0.315918,0.756836,0
65760,-0.477051,-0.313965,0.753418,0
65780,-0.478516,-0.309082,0.757812,0
65800,-0.474121,-0.316895,0.751465,0
65820,-0.475098,-0.318848,0.758789,0
65840,-0.475098,-0.315918,0.765137,0
65860,-0.47168,-0.315918,0.759277,0
65880,-0.473145,-0.314453,0.757812,0
65900,-0.472656,-0.320312,0.756348,0
65920,-0.472656,-0.31543,0.765137,0
65940,-0.473145,-0.307617,0.759766,0
65960,-0.47168,-0.313965,0.766602,0
65980,-0.467773,-0.308594,0.756348,0
66000,-0.47168,-0.310547,0.756836,0
66020,-0.475098,-0.307617,0.758789,0
66040,-0.475098,-0.310059,0.760254,0
66060,-0.473633,-0.310059,0.763672,0
66080,-0.474121,-0.310547,0.760254,0
66100,-0.471191,-0.31543,0.757812,0
66120,-0.46875,-0.313477,0.751953,0
66140,-0.470703,-0.31543,0.760254,0
66160,-0.47168,-0.311035,0.757324,0
66180,-0.473633,-0.310547,0.757812,0
66200,-0.469238,-0.312012,0.755371,0
